"StartTime","condition","internal_node_id","list","phase","rt","subject","time_elapsed","trial_index","trial_type","url","response","stimulus","success","fullscreen","correct","sex","english","category","data_condition","type2","word"
1680457876923,"pureproduce","0.0-14.0-0.0","List3","test",1456,"05oul6dvbxopcnb",373083,103,"html-keyboard-response",NA,1,"<p style='font-size: 48px;'>HURRICANE</p>",NA,NA,0,NA,NA,"weather phenomenon","produce","new","HURRICANE"
1680457876923,"pureproduce","0.0-14.0-0.1","List3","test",820.400000095367,"05oul6dvbxopcnb",374425,104,"html-keyboard-response",NA,1,"<p style='font-size: 48px;'>STEEL</p>",NA,NA,1,NA,NA,"metal","produce","old","STEEL"
1680457876923,"pureproduce","0.0-14.0-0.2","List3","test",853.799999952316,"05oul6dvbxopcnb",375781,105,"html-keyboard-response",NA,0,"<p style='font-size: 48px;'>DIESEL</p>",NA,NA,1,NA,NA,"type of fuel","new","new","DIESEL"
1680457876923,"pureproduce","0.0-14.0-0.3","List3","test",1155,"05oul6dvbxopcnb",377439,106,"html-keyboard-response",NA,0,"<p style='font-size: 48px;'>STRAWBERRY</p>",NA,NA,1,NA,NA,"fruit","produce","new","STRAWBERRY"
1680457876923,"pureproduce","0.0-14.0-0.4","List3","test",633.600000023842,"05oul6dvbxopcnb",378590,107,"html-keyboard-response",NA,0,"<p style='font-size: 48px;'>AMETHYST</p>",NA,NA,1,NA,NA,"precious stone","new","new","AMETHYST"
1680457876923,"pureproduce","0.0-14.0-0.5","List3","test",795.199999928474,"05oul6dvbxopcnb",379891,108,"html-keyboard-response",NA,1,"<p style='font-size: 48px;'>FLORIDA</p>",NA,NA,1,NA,NA,"state","read","old","FLORIDA"
1680457876923,"pureproduce","0.0-14.0-0.6","List3","test",693.399999976158,"05oul6dvbxopcnb",381093,109,"html-keyboard-response",NA,1,"<p style='font-size: 48px;'>CADET</p>",NA,NA,1,NA,NA,"military title","produce","old","CADET"
1680457876923,"pureproduce","0.0-14.0-0.7","List3","test",742.899999976158,"05oul6dvbxopcnb",382345,110,"html-keyboard-response",NA,0,"<p style='font-size: 48px;'>GOLDFISH</p>",NA,NA,1,NA,NA,"fish","read","new","GOLDFISH"
1680457876923,"pureproduce","0.0-14.0-0.8","List3","test",631.199999928474,"05oul6dvbxopcnb",383488,111,"html-keyboard-response",NA,0,"<p style='font-size: 48px;'>SALMON</p>",NA,NA,1,NA,NA,"fish","read","new","SALMON"
1680457876923,"pureproduce","0.0-14.0-0.9","List3","test",603.399999976158,"05oul6dvbxopcnb",384598,112,"html-keyboard-response",NA,1,"<p style='font-size: 48px;'>GUITAR</p>",NA,NA,1,NA,NA,"musical instrument","read","old","GUITAR"
1680457876923,"pureproduce","0.0-14.0-0.10","List3","test",621.199999928474,"05oul6dvbxopcnb",385735,113,"html-keyboard-response",NA,1,"<p style='font-size: 48px;'>TROUT</p>",NA,NA,1,NA,NA,"fish","read","old","TROUT"
1680457876923,"pureproduce","0.0-14.0-0.11","List3","test",819.100000023842,"05oul6dvbxopcnb",387068,114,"html-keyboard-response",NA,0,"<p style='font-size: 48px;'>HAIL</p>",NA,NA,1,NA,NA,"weather phenomenon","produce","new","HAIL"
1680457876923,"pureproduce","0.0-14.0-0.12","List3","test",913.400000095367,"05oul6dvbxopcnb",388486,115,"html-keyboard-response",NA,1,"<p style='font-size: 48px;'>SILK</p>",NA,NA,0,NA,NA,"type of fabric","produce","new","SILK"
1680457876923,"pureproduce","0.0-14.0-0.13","List3","test",754.399999976158,"05oul6dvbxopcnb",389748,116,"html-keyboard-response",NA,0,"<p style='font-size: 48px;'>THUNDER</p>",NA,NA,1,NA,NA,"weather phenomenon","produce","new","THUNDER"
1680457876923,"pureproduce","0.0-14.0-0.14","List3","test",1104.19999992847,"05oul6dvbxopcnb",391366,117,"html-keyboard-response",NA,1,"<p style='font-size: 48px;'>VIOLIN</p>",NA,NA,1,NA,NA,"musical instrument","read","old","VIOLIN"
1680457876923,"pureproduce","0.0-14.0-0.15","List3","test",722.700000047684,"05oul6dvbxopcnb",392611,118,"html-keyboard-response",NA,0,"<p style='font-size: 48px;'>POLYESTER</p>",NA,NA,1,NA,NA,"type of fabric","produce","new","POLYESTER"
1680457876923,"pureproduce","0.0-14.0-0.16","List3","test",738,"05oul6dvbxopcnb",393850,119,"html-keyboard-response",NA,1,"<p style='font-size: 48px;'>DENIM</p>",NA,NA,1,NA,NA,"type of fabric","produce","old","DENIM"
1680457876923,"pureproduce","0.0-14.0-0.17","List3","test",890.5,"05oul6dvbxopcnb",395242,120,"html-keyboard-response",NA,0,"<p style='font-size: 48px;'>SAPPHIRE</p>",NA,NA,1,NA,NA,"precious stone","new","new","SAPPHIRE"
1680457876923,"pureproduce","0.0-14.0-0.18","List3","test",785.599999904633,"05oul6dvbxopcnb",396539,121,"html-keyboard-response",NA,0,"<p style='font-size: 48px;'>BRONZE</p>",NA,NA,0,NA,NA,"metal","produce","old","BRONZE"
1680457876923,"pureproduce","0.0-14.0-0.19","List3","test",598,"05oul6dvbxopcnb",397651,122,"html-keyboard-response",NA,1,"<p style='font-size: 48px;'>SKIRT</p>",NA,NA,1,NA,NA,"article of clothing","read","old","SKIRT"
1680457876923,"pureproduce","0.0-14.0-0.20","List3","test",717,"05oul6dvbxopcnb",398875,123,"html-keyboard-response",NA,0,"<p style='font-size: 48px;'>BLUEJAY</p>",NA,NA,1,NA,NA,"bird","new","new","BLUEJAY"
1680457876923,"pureproduce","0.0-14.0-0.21","List3","test",1688,"05oul6dvbxopcnb",401081,124,"html-keyboard-response",NA,1,"<p style='font-size: 48px;'>ORANGE</p>",NA,NA,1,NA,NA,"fruit","produce","old","ORANGE"
1680457876923,"pureproduce","0.0-14.0-0.22","List3","test",827.200000047684,"05oul6dvbxopcnb",402413,125,"html-keyboard-response",NA,0,"<p style='font-size: 48px;'>MILK</p>",NA,NA,1,NA,NA,"nonalcoholic beverage","new","new","MILK"
1680457876923,"pureproduce","0.0-14.0-0.23","List3","test",680.899999976158,"05oul6dvbxopcnb",403605,126,"html-keyboard-response",NA,0,"<p style='font-size: 48px;'>WISCONSIN</p>",NA,NA,1,NA,NA,"state","read","new","WISCONSIN"
1680457876923,"pureproduce","0.0-14.0-0.24","List3","test",950.199999928474,"05oul6dvbxopcnb",405061,127,"html-keyboard-response",NA,1,"<p style='font-size: 48px;'>ALUMINUM</p>",NA,NA,1,NA,NA,"metal","produce","old","ALUMINUM"
1680457876923,"pureproduce","0.0-14.0-0.25","List3","test",654.399999976158,"05oul6dvbxopcnb",406224,128,"html-keyboard-response",NA,1,"<p style='font-size: 48px;'>SOCKS</p>",NA,NA,1,NA,NA,"article of clothing","read","old","SOCKS"
1680457876923,"pureproduce","0.0-14.0-0.26","List3","test",850,"05oul6dvbxopcnb",407588,129,"html-keyboard-response",NA,0,"<p style='font-size: 48px;'>GAS</p>",NA,NA,1,NA,NA,"type of fuel","new","new","GAS"
1680457876923,"pureproduce","0.0-14.0-0.27","List3","test",632.399999976158,"05oul6dvbxopcnb",408725,130,"html-keyboard-response",NA,1,"<p style='font-size: 48px;'>PERCH</p>",NA,NA,1,NA,NA,"fish","read","old","PERCH"
1680457876923,"pureproduce","0.0-14.0-0.28","List3","test",637.300000071526,"05oul6dvbxopcnb",409869,131,"html-keyboard-response",NA,1,"<p style='font-size: 48px;'>VERMONT</p>",NA,NA,1,NA,NA,"state","read","old","VERMONT"
1680457876923,"pureproduce","0.0-14.0-0.29","List3","test",654.700000047684,"05oul6dvbxopcnb",411039,132,"html-keyboard-response",NA,1,"<p style='font-size: 48px;'>TRUMPET</p>",NA,NA,1,NA,NA,"musical instrument","read","old","TRUMPET"
1680457876923,"pureproduce","0.0-14.0-0.30","List3","test",583.799999952316,"05oul6dvbxopcnb",412139,133,"html-keyboard-response",NA,1,"<p style='font-size: 48px;'>COAT</p>",NA,NA,1,NA,NA,"article of clothing","read","old","COAT"
1680457876923,"pureproduce","0.0-14.0-0.31","List3","test",632.600000023842,"05oul6dvbxopcnb",413277,134,"html-keyboard-response",NA,1,"<p style='font-size: 48px;'>MOTH</p>",NA,NA,1,NA,NA,"insect","read","old","MOTH"
1680457876923,"pureproduce","0.0-14.0-0.32","List3","test",1073.80000007153,"05oul6dvbxopcnb",414858,135,"html-keyboard-response",NA,0,"<p style='font-size: 48px;'>SHIRT</p>",NA,NA,0,NA,NA,"article of clothing","read","old","SHIRT"
1680457876923,"pureproduce","0.0-14.0-0.33","List3","test",809.5,"05oul6dvbxopcnb",416181,136,"html-keyboard-response",NA,1,"<p style='font-size: 48px;'>PEACH</p>",NA,NA,1,NA,NA,"fruit","produce","old","PEACH"
1680457876923,"pureproduce","0.0-14.0-0.34","List3","test",621.5,"05oul6dvbxopcnb",417311,137,"html-keyboard-response",NA,1,"<p style='font-size: 48px;'>CASHMERE</p>",NA,NA,1,NA,NA,"type of fabric","produce","old","CASHMERE"
1680457876923,"pureproduce","0.0-14.0-0.35","List3","test",734,"05oul6dvbxopcnb",418569,138,"html-keyboard-response",NA,1,"<p style='font-size: 48px;'>HALIBUT</p>",NA,NA,1,NA,NA,"fish","read","old","HALIBUT"
1680457876923,"pureproduce","0.0-14.0-0.36","List3","test",703.300000071526,"05oul6dvbxopcnb",419787,139,"html-keyboard-response",NA,1,"<p style='font-size: 48px;'>BEACH</p>",NA,NA,1,NA,NA,"natural earth formation","produce","old","BEACH"
1680457876923,"pureproduce","0.0-14.0-0.37","List3","test",1025.60000002384,"05oul6dvbxopcnb",421314,140,"html-keyboard-response",NA,0,"<p style='font-size: 48px;'>CANOE</p>",NA,NA,1,NA,NA,"type of boat","new","new","CANOE"
1680457876923,"pureproduce","0.0-14.0-0.38","List3","test",681.199999928474,"05oul6dvbxopcnb",422522,141,"html-keyboard-response",NA,1,"<p style='font-size: 48px;'>CANYON</p>",NA,NA,1,NA,NA,"natural earth formation","produce","old","CANYON"
1680457876923,"pureproduce","0.0-14.0-0.39","List3","test",900.399999976158,"05oul6dvbxopcnb",423928,142,"html-keyboard-response",NA,0,"<p style='font-size: 48px;'>SOLDIER</p>",NA,NA,1,NA,NA,"military title","produce","new","SOLDIER"
1680457876923,"pureproduce","0.0-14.0-0.40","List3","test",769.5,"05oul6dvbxopcnb",425203,143,"html-keyboard-response",NA,0,"<p style='font-size: 48px;'>HYDROGEN</p>",NA,NA,1,NA,NA,"chemical element","new","new","HYDROGEN"
1680457876923,"pureproduce","0.0-14.0-0.41","List3","test",916.5,"05oul6dvbxopcnb",426623,144,"html-keyboard-response",NA,0,"<p style='font-size: 48px;'>TUBA</p>",NA,NA,1,NA,NA,"musical instrument","read","new","TUBA"
1680457876923,"pureproduce","0.0-14.0-0.42","List3","test",858.100000023842,"05oul6dvbxopcnb",427983,145,"html-keyboard-response",NA,0,"<p style='font-size: 48px;'>BANJO</p>",NA,NA,0,NA,NA,"musical instrument","read","old","BANJO"
1680457876923,"pureproduce","0.0-14.0-0.43","List3","test",646.700000047684,"05oul6dvbxopcnb",429141,146,"html-keyboard-response",NA,1,"<p style='font-size: 48px;'>SILVER</p>",NA,NA,1,NA,NA,"metal","produce","old","SILVER"
1680457876923,"pureproduce","0.0-14.0-0.44","List3","test",851.299999952316,"05oul6dvbxopcnb",430504,147,"html-keyboard-response",NA,0,"<p style='font-size: 48px;'>VELVET</p>",NA,NA,1,NA,NA,"type of fabric","produce","new","VELVET"
1680457876923,"pureproduce","0.0-14.0-0.45","List3","test",693.600000023842,"05oul6dvbxopcnb",431715,148,"html-keyboard-response",NA,1,"<p style='font-size: 48px;'>CAPTAIN</p>",NA,NA,1,NA,NA,"military title","produce","old","CAPTAIN"
1680457876923,"pureproduce","0.0-14.0-0.46","List3","test",640.700000047684,"05oul6dvbxopcnb",432869,149,"html-keyboard-response",NA,1,"<p style='font-size: 48px;'>CENTIPEDE</p>",NA,NA,1,NA,NA,"insect","read","old","CENTIPEDE"
1680457876923,"pureproduce","0.0-14.0-0.47","List3","test",725.5,"05oul6dvbxopcnb",434114,150,"html-keyboard-response",NA,0,"<p style='font-size: 48px;'>BANANA</p>",NA,NA,1,NA,NA,"fruit","produce","new","BANANA"
1680457876923,"pureproduce","0.0-14.0-0.48","List3","test",1180.89999997616,"05oul6dvbxopcnb",435798,151,"html-keyboard-response",NA,1,"<p style='font-size: 48px;'>COUCH</p>",NA,NA,0,NA,NA,"article of furniture","new","new","COUCH"
1680457876923,"pureproduce","0.0-14.0-0.49","List3","test",607.100000023842,"05oul6dvbxopcnb",436929,152,"html-keyboard-response",NA,0,"<p style='font-size: 48px;'>TITANIUM</p>",NA,NA,1,NA,NA,"metal","produce","new","TITANIUM"
1680457876923,"pureproduce","0.0-14.0-0.50","List3","test",915.200000047684,"05oul6dvbxopcnb",438362,153,"html-keyboard-response",NA,0,"<p style='font-size: 48px;'>SPIDER</p>",NA,NA,1,NA,NA,"insect","read","new","SPIDER"
1680457876923,"pureproduce","0.0-14.0-0.51","List3","test",605.300000071526,"05oul6dvbxopcnb",439473,154,"html-keyboard-response",NA,0,"<p style='font-size: 48px;'>JUICE</p>",NA,NA,1,NA,NA,"nonalcoholic beverage","new","new","JUICE"
1680457876923,"pureproduce","0.0-14.0-0.52","List3","test",844.700000047684,"05oul6dvbxopcnb",440833,155,"html-keyboard-response",NA,1,"<p style='font-size: 48px;'>VOLCANO</p>",NA,NA,1,NA,NA,"natural earth formation","produce","old","VOLCANO"
1680457876923,"pureproduce","0.0-14.0-0.53","List3","test",1361,"05oul6dvbxopcnb",442702,156,"html-keyboard-response",NA,0,"<p style='font-size: 48px;'>COLONEL</p>",NA,NA,1,NA,NA,"military title","produce","new","COLONEL"
1680457876923,"pureproduce","0.0-14.0-0.54","List3","test",691,"05oul6dvbxopcnb",443897,157,"html-keyboard-response",NA,0,"<p style='font-size: 48px;'>MOSQUITO</p>",NA,NA,1,NA,NA,"insect","read","new","MOSQUITO"
1680457876923,"pureproduce","0.0-14.0-0.55","List3","test",693.5,"05oul6dvbxopcnb",445095,158,"html-keyboard-response",NA,1,"<p style='font-size: 48px;'>OCEAN</p>",NA,NA,1,NA,NA,"natural earth formation","produce","old","OCEAN"
1680457876923,"pureproduce","0.0-14.0-0.56","List3","test",854.899999976158,"05oul6dvbxopcnb",446461,159,"html-keyboard-response",NA,0,"<p style='font-size: 48px;'>WATER</p>",NA,NA,1,NA,NA,"nonalcoholic beverage","new","new","WATER"
1680457876923,"pureproduce","0.0-14.0-0.57","List3","test",709.299999952316,"05oul6dvbxopcnb",447688,160,"html-keyboard-response",NA,0,"<p style='font-size: 48px;'>SNOW</p>",NA,NA,0,NA,NA,"weather phenomenon","produce","old","SNOW"
1680457876923,"pureproduce","0.0-14.0-0.58","List3","test",878.5,"05oul6dvbxopcnb",449077,161,"html-keyboard-response",NA,0,"<p style='font-size: 48px;'>DRESS</p>",NA,NA,1,NA,NA,"article of clothing","read","new","DRESS"
1680457876923,"pureproduce","0.0-14.0-0.59","List3","test",761.100000023842,"05oul6dvbxopcnb",450346,162,"html-keyboard-response",NA,0,"<p style='font-size: 48px;'>APPLE</p>",NA,NA,1,NA,NA,"fruit","produce","new","APPLE"
1680457876923,"pureproduce","0.0-14.0-0.60","List3","test",983.599999904633,"05oul6dvbxopcnb",451857,163,"html-keyboard-response",NA,0,"<p style='font-size: 48px;'>CONNECTICUT</p>",NA,NA,1,NA,NA,"state","read","new","CONNECTICUT"
1680457876923,"pureproduce","0.0-14.0-0.61","List3","test",781.5,"05oul6dvbxopcnb",453160,164,"html-keyboard-response",NA,0,"<p style='font-size: 48px;'>LOUISIANA</p>",NA,NA,0,NA,NA,"state","read","old","LOUISIANA"
1680457876923,"pureproduce","0.0-14.0-0.62","List3","test",629.5,"05oul6dvbxopcnb",454296,165,"html-keyboard-response",NA,1,"<p style='font-size: 48px;'>SAXOPHONE</p>",NA,NA,1,NA,NA,"musical instrument","read","old","SAXOPHONE"
1680457876923,"pureproduce","0.0-14.0-0.63","List3","test",903,"05oul6dvbxopcnb",455708,166,"html-keyboard-response",NA,1,"<p style='font-size: 48px;'>PIANO</p>",NA,NA,1,NA,NA,"musical instrument","read","old","PIANO"
1680457876923,"pureproduce","0.0-14.0-0.64","List3","test",1071.10000002384,"05oul6dvbxopcnb",457297,167,"html-keyboard-response",NA,0,"<p style='font-size: 48px;'>MICHIGAN</p>",NA,NA,0,NA,NA,"state","read","old","MICHIGAN"
1680457876923,"pureproduce","0.0-14.0-0.65","List3","test",863,"05oul6dvbxopcnb",458678,168,"html-keyboard-response",NA,0,"<p style='font-size: 48px;'>IRON</p>",NA,NA,0,NA,NA,"metal","produce","old","IRON"
1680457876923,"pureproduce","0.0-14.0-0.66","List3","test",846.300000071526,"05oul6dvbxopcnb",460031,169,"html-keyboard-response",NA,0,"<p style='font-size: 48px;'>LEAD</p>",NA,NA,1,NA,NA,"metal","produce","new","LEAD"
1680457876923,"pureproduce","0.0-14.0-0.67","List3","test",674.299999952316,"05oul6dvbxopcnb",461214,170,"html-keyboard-response",NA,0,"<p style='font-size: 48px;'>BALLROOM</p>",NA,NA,1,NA,NA,"type of dance","new","new","BALLROOM"
1680457876923,"pureproduce","0.0-14.0-0.68","List3","test",641.399999976158,"05oul6dvbxopcnb",462370,171,"html-keyboard-response",NA,0,"<p style='font-size: 48px;'>HAMMER</p>",NA,NA,1,NA,NA,"carpenter tool","new","new","HAMMER"
1680457876923,"pureproduce","0.0-14.0-0.69","List3","test",655.400000095367,"05oul6dvbxopcnb",463527,172,"html-keyboard-response",NA,0,"<p style='font-size: 48px;'>SHARK</p>",NA,NA,1,NA,NA,"fish","read","new","SHARK"
1680457876923,"pureproduce","0.0-14.0-0.70","List3","test",713.900000095367,"05oul6dvbxopcnb",464753,173,"html-keyboard-response",NA,0,"<p style='font-size: 48px;'>ASPARAGUS</p>",NA,NA,1,NA,NA,"vegetable","read","new","ASPARAGUS"
1680457876923,"pureproduce","0.0-14.0-0.71","List3","test",751,"05oul6dvbxopcnb",466012,174,"html-keyboard-response",NA,1,"<p style='font-size: 48px;'>GNAT</p>",NA,NA,1,NA,NA,"insect","read","old","GNAT"
1680457876923,"pureproduce","0.0-14.0-0.72","List3","test",1048.60000002384,"05oul6dvbxopcnb",467576,175,"html-keyboard-response",NA,1,"<p style='font-size: 48px;'>OFFICER</p>",NA,NA,1,NA,NA,"military title","produce","old","OFFICER"
1680457876923,"pureproduce","0.0-14.0-0.73","List3","test",675.5,"05oul6dvbxopcnb",468762,176,"html-keyboard-response",NA,1,"<p style='font-size: 48px;'>CANTALOUPE</p>",NA,NA,1,NA,NA,"fruit","produce","old","CANTALOUPE"
1680457876923,"pureproduce","0.0-14.0-0.74","List3","test",643.100000023842,"05oul6dvbxopcnb",469918,177,"html-keyboard-response",NA,1,"<p style='font-size: 48px;'>DROUGHT</p>",NA,NA,1,NA,NA,"weather phenomenon","produce","old","DROUGHT"
1680457876923,"pureproduce","0.0-14.0-0.75","List3","test",1073.59999990463,"05oul6dvbxopcnb",471499,178,"html-keyboard-response",NA,0,"<p style='font-size: 48px;'>MONK</p>",NA,NA,1,NA,NA,"member of clergy","new","new","MONK"
1680457876923,"pureproduce","0.0-14.0-0.76","List3","test",821.399999976158,"05oul6dvbxopcnb",472838,179,"html-keyboard-response",NA,1,"<p style='font-size: 48px;'>ANT</p>",NA,NA,1,NA,NA,"insect","read","old","ANT"
1680457876923,"pureproduce","0.0-14.0-0.77","List3","test",803.700000047684,"05oul6dvbxopcnb",474156,180,"html-keyboard-response",NA,0,"<p style='font-size: 48px;'>BED</p>",NA,NA,1,NA,NA,"article of furniture","new","new","BED"
1680457876923,"pureproduce","0.0-14.0-0.78","List3","test",610.399999976158,"05oul6dvbxopcnb",475268,181,"html-keyboard-response",NA,1,"<p style='font-size: 48px;'>CHERRY</p>",NA,NA,1,NA,NA,"fruit","produce","old","CHERRY"
1680457876923,"pureproduce","0.0-14.0-0.79","List3","test",677,"05oul6dvbxopcnb",476458,182,"html-keyboard-response",NA,0,"<p style='font-size: 48px;'>PRIEST</p>",NA,NA,1,NA,NA,"member of clergy","new","new","PRIEST"
1680457876923,"pureproduce","0.0-14.0-0.80","List3","test",730.100000023842,"05oul6dvbxopcnb",477696,183,"html-keyboard-response",NA,1,"<p style='font-size: 48px;'>SUEDE</p>",NA,NA,1,NA,NA,"type of fabric","produce","old","SUEDE"
1680457876923,"pureproduce","0.0-14.0-0.81","List3","test",830.800000071526,"05oul6dvbxopcnb",479035,184,"html-keyboard-response",NA,0,"<p style='font-size: 48px;'>DESERT</p>",NA,NA,1,NA,NA,"natural earth formation","produce","new","DESERT"
1680457876923,"pureproduce","0.0-14.0-0.82","List3","test",806.300000071526,"05oul6dvbxopcnb",480350,185,"html-keyboard-response",NA,0,"<p style='font-size: 48px;'>DRUMS</p>",NA,NA,1,NA,NA,"musical instrument","read","new","DRUMS"
1680457876923,"pureproduce","0.0-14.0-0.83","List3","test",733.799999952316,"05oul6dvbxopcnb",481613,186,"html-keyboard-response",NA,1,"<p style='font-size: 48px;'>SLEET</p>",NA,NA,1,NA,NA,"weather phenomenon","produce","old","SLEET"
1680457876923,"pureproduce","0.0-14.0-0.84","List3","test",649.899999976158,"05oul6dvbxopcnb",482767,187,"html-keyboard-response",NA,0,"<p style='font-size: 48px;'>KAYAK</p>",NA,NA,1,NA,NA,"type of boat","new","new","KAYAK"
1680457876923,"pureproduce","0.0-14.0-0.85","List3","test",706.800000071526,"05oul6dvbxopcnb",483993,188,"html-keyboard-response",NA,0,"<p style='font-size: 48px;'>POTATO</p>",NA,NA,1,NA,NA,"vegetable","read","new","POTATO"
1680457876923,"pureproduce","0.0-14.0-0.86","List3","test",807.600000023842,"05oul6dvbxopcnb",485316,189,"html-keyboard-response",NA,0,"<p style='font-size: 48px;'>CORN</p>",NA,NA,0,NA,NA,"vegetable","read","old","CORN"
1680457876923,"pureproduce","0.0-14.0-0.87","List3","test",1175.69999992847,"05oul6dvbxopcnb",487006,190,"html-keyboard-response",NA,1,"<p style='font-size: 48px;'>LIEUTENANT</p>",NA,NA,1,NA,NA,"military title","produce","old","LIEUTENANT"
1680457876923,"pureproduce","0.0-14.0-0.88","List3","test",951.899999976158,"05oul6dvbxopcnb",488477,191,"html-keyboard-response",NA,0,"<p style='font-size: 48px;'>EMERALD</p>",NA,NA,1,NA,NA,"precious stone","new","new","EMERALD"
1680457876923,"pureproduce","0.0-14.0-0.89","List3","test",966.600000023842,"05oul6dvbxopcnb",489976,192,"html-keyboard-response",NA,1,"<p style='font-size: 48px;'>RECEIVER</p>",NA,NA,0,NA,NA,"football position","new","new","RECEIVER"
1680457876923,"pureproduce","0.0-14.0-0.90","List3","test",843,"05oul6dvbxopcnb",491329,193,"html-keyboard-response",NA,1,"<p style='font-size: 48px;'>FLY</p>",NA,NA,1,NA,NA,"insect","read","old","FLY"
1680457876923,"pureproduce","0.0-14.0-0.91","List3","test",861.699999928474,"05oul6dvbxopcnb",492697,194,"html-keyboard-response",NA,1,"<p style='font-size: 48px;'>PRIVATE</p>",NA,NA,1,NA,NA,"military title","produce","old","PRIVATE"
1680457876923,"pureproduce","0.0-14.0-0.92","List3","test",856.299999952316,"05oul6dvbxopcnb",494062,195,"html-keyboard-response",NA,1,"<p style='font-size: 48px;'>RAIN</p>",NA,NA,1,NA,NA,"weather phenomenon","produce","old","RAIN"
1680457876923,"pureproduce","0.0-14.0-0.93","List3","test",711.400000095367,"05oul6dvbxopcnb",495288,196,"html-keyboard-response",NA,0,"<p style='font-size: 48px;'>BOOTS</p>",NA,NA,1,NA,NA,"footware","new","new","BOOTS"
1680457876923,"pureproduce","0.0-14.0-0.94","List3","test",771.899999976158,"05oul6dvbxopcnb",496577,197,"html-keyboard-response",NA,1,"<p style='font-size: 48px;'>COD</p>",NA,NA,1,NA,NA,"fish","read","old","COD"
1680457876923,"pureproduce","0.0-14.0-0.95","List3","test",1092.39999997616,"05oul6dvbxopcnb",498180,198,"html-keyboard-response",NA,0,"<p style='font-size: 48px;'>COMMANDER</p>",NA,NA,0,NA,NA,"military title","produce","old","COMMANDER"
1680457876923,"pureproduce","0.0-14.0-0.96","List3","test",635.800000071526,"05oul6dvbxopcnb",499327,199,"html-keyboard-response",NA,1,"<p style='font-size: 48px;'>WOOL</p>",NA,NA,1,NA,NA,"type of fabric","produce","old","WOOL"
1680457876923,"pureproduce","0.0-14.0-0.97","List3","test",571.700000047684,"05oul6dvbxopcnb",500401,200,"html-keyboard-response",NA,0,"<p style='font-size: 48px;'>NUN</p>",NA,NA,1,NA,NA,"member of clergy","new","new","NUN"
1680457876923,"pureproduce","0.0-14.0-0.98","List3","test",898.300000071526,"05oul6dvbxopcnb",501818,201,"html-keyboard-response",NA,0,"<p style='font-size: 48px;'>HUMMINGBIRD</p>",NA,NA,1,NA,NA,"bird","new","new","HUMMINGBIRD"
1680457876923,"pureproduce","0.0-14.0-0.99","List3","test",763.100000023842,"05oul6dvbxopcnb",503084,202,"html-keyboard-response",NA,0,"<p style='font-size: 48px;'>OXYGEN</p>",NA,NA,1,NA,NA,"chemical element","new","new","OXYGEN"
1680457876923,"pureproduce","0.0-14.0-0.100","List3","test",654.800000071526,"05oul6dvbxopcnb",504251,203,"html-keyboard-response",NA,0,"<p style='font-size: 48px;'>OIL</p>",NA,NA,1,NA,NA,"type of fuel","new","new","OIL"
1680457876923,"pureproduce","0.0-14.0-0.101","List3","test",690.800000071526,"05oul6dvbxopcnb",505454,204,"html-keyboard-response",NA,0,"<p style='font-size: 48px;'>YACHT</p>",NA,NA,1,NA,NA,"type of boat","new","new","YACHT"
1680457876923,"pureproduce","0.0-14.0-0.102","List3","test",698,"05oul6dvbxopcnb",506665,205,"html-keyboard-response",NA,0,"<p style='font-size: 48px;'>SANDALS</p>",NA,NA,1,NA,NA,"footware","new","new","SANDALS"
1680457876923,"pureproduce","0.0-14.0-0.103","List3","test",628.700000047684,"05oul6dvbxopcnb",507799,206,"html-keyboard-response",NA,1,"<p style='font-size: 48px;'>ZUCCHINI</p>",NA,NA,1,NA,NA,"vegetable","read","old","ZUCCHINI"
1680457876923,"pureproduce","0.0-14.0-0.104","List3","test",637.800000071526,"05oul6dvbxopcnb",508948,207,"html-keyboard-response",NA,1,"<p style='font-size: 48px;'>TEXAS</p>",NA,NA,1,NA,NA,"state","read","old","TEXAS"
1680457876923,"pureproduce","0.0-14.0-0.105","List3","test",832.200000047684,"05oul6dvbxopcnb",510309,208,"html-keyboard-response",NA,0,"<p style='font-size: 48px;'>WRENCH</p>",NA,NA,1,NA,NA,"carpenter tool","new","new","WRENCH"
1680457876923,"pureproduce","0.0-14.0-0.106","List3","test",682.800000071526,"05oul6dvbxopcnb",511500,209,"html-keyboard-response",NA,0,"<p style='font-size: 48px;'>CLIFF</p>",NA,NA,0,NA,NA,"natural earth formation","produce","old","CLIFF"
1680457876923,"pureproduce","0.0-14.0-0.107","List3","test",685,"05oul6dvbxopcnb",512688,210,"html-keyboard-response",NA,1,"<p style='font-size: 48px;'>CATFISH</p>",NA,NA,1,NA,NA,"fish","read","old","CATFISH"
1680457876923,"pureproduce","0.0-14.0-0.108","List3","test",709.700000047684,"05oul6dvbxopcnb",513916,211,"html-keyboard-response",NA,1,"<p style='font-size: 48px;'>MOUNTAIN</p>",NA,NA,1,NA,NA,"natural earth formation","produce","old","MOUNTAIN"
1680457876923,"pureproduce","0.0-14.0-0.109","List3","test",633,"05oul6dvbxopcnb",515061,212,"html-keyboard-response",NA,0,"<p style='font-size: 48px;'>BLOUSE</p>",NA,NA,1,NA,NA,"article of clothing","read","new","BLOUSE"
1680457876923,"pureproduce","0.0-14.0-0.110","List3","test",641.300000071526,"05oul6dvbxopcnb",516209,213,"html-keyboard-response",NA,1,"<p style='font-size: 48px;'>SWEATER</p>",NA,NA,1,NA,NA,"article of clothing","read","old","SWEATER"
1680457876923,"pureproduce","0.0-14.0-0.111","List3","test",723.700000047684,"05oul6dvbxopcnb",517442,214,"html-keyboard-response",NA,0,"<p style='font-size: 48px;'>SCREWDRIVER</p>",NA,NA,1,NA,NA,"carpenter tool","new","new","SCREWDRIVER"
1680457876923,"pureproduce","0.0-14.0-0.112","List3","test",620.800000071526,"05oul6dvbxopcnb",518578,215,"html-keyboard-response",NA,0,"<p style='font-size: 48px;'>QUARTERBACK</p>",NA,NA,1,NA,NA,"football position","new","new","QUARTERBACK"
1680457876923,"pureproduce","0.0-14.0-0.113","List3","test",853.800000071526,"05oul6dvbxopcnb",519944,216,"html-keyboard-response",NA,1,"<p style='font-size: 48px;'>CARROT</p>",NA,NA,1,NA,NA,"vegetable","read","old","CARROT"
1680457876923,"pureproduce","0.0-14.0-0.114","List3","test",782.599999904633,"05oul6dvbxopcnb",521245,217,"html-keyboard-response",NA,0,"<p style='font-size: 48px;'>MISSISSIPPI</p>",NA,NA,1,NA,NA,"state","read","new","MISSISSIPPI"
1680457876923,"pureproduce","0.0-14.0-0.115","List3","test",713.699999928474,"05oul6dvbxopcnb",522466,218,"html-keyboard-response",NA,0,"<p style='font-size: 48px;'>BEE</p>",NA,NA,1,NA,NA,"insect","read","new","BEE"
1680457876923,"pureproduce","0.0-14.0-0.116","List3","test",735.799999952316,"05oul6dvbxopcnb",523709,219,"html-keyboard-response",NA,0,"<p style='font-size: 48px;'>BALLET</p>",NA,NA,1,NA,NA,"type of dance","new","new","BALLET"
1680457876923,"pureproduce","0.0-14.0-0.117","List3","test",702.100000023842,"05oul6dvbxopcnb",524930,220,"html-keyboard-response",NA,0,"<p style='font-size: 48px;'>SHORTS</p>",NA,NA,1,NA,NA,"article of clothing","read","new","SHORTS"
1680457876923,"pureproduce","0.0-14.0-0.118","List3","test",626.899999976158,"05oul6dvbxopcnb",526058,221,"html-keyboard-response",NA,0,"<p style='font-size: 48px;'>RIVER</p>",NA,NA,1,NA,NA,"natural earth formation","produce","new","RIVER"
1680457876923,"pureproduce","0.0-14.0-0.119","List3","test",791.5,"05oul6dvbxopcnb",527362,222,"html-keyboard-response",NA,0,"<p style='font-size: 48px;'>NYLON</p>",NA,NA,0,NA,NA,"type of fabric","produce","old","NYLON"
1680457876923,"pureproduce","0.0-14.0-0.120","List3","test",687.700000047684,"05oul6dvbxopcnb",528560,223,"html-keyboard-response",NA,0,"<p style='font-size: 48px;'>BROCCOLI</p>",NA,NA,1,NA,NA,"vegetable","read","new","BROCCOLI"
1680457876923,"pureproduce","0.0-14.0-0.121","List3","test",601.100000023842,"05oul6dvbxopcnb",529679,224,"html-keyboard-response",NA,0,"<p style='font-size: 48px;'>MAJOR</p>",NA,NA,1,NA,NA,"military title","produce","new","MAJOR"
1680457876923,"pureproduce","0.0-14.0-0.122","List3","test",682,"05oul6dvbxopcnb",530863,225,"html-keyboard-response",NA,0,"<p style='font-size: 48px;'>LINEMAN</p>",NA,NA,1,NA,NA,"football position","new","new","LINEMAN"
1680457876923,"pureproduce","0.0-14.0-0.123","List3","test",791.200000047684,"05oul6dvbxopcnb",532159,226,"html-keyboard-response",NA,0,"<p style='font-size: 48px;'>SODIUM</p>",NA,NA,1,NA,NA,"chemical element","new","new","SODIUM"
1680457876923,"pureproduce","0.0-14.0-0.124","List3","test",711.100000023842,"05oul6dvbxopcnb",533381,227,"html-keyboard-response",NA,1,"<p style='font-size: 48px;'>TORNADO</p>",NA,NA,1,NA,NA,"weather phenomenon","produce","old","TORNADO"
1680457876923,"pureproduce","0.0-14.0-0.125","List3","test",803.799999952316,"05oul6dvbxopcnb",534698,228,"html-keyboard-response",NA,1,"<p style='font-size: 48px;'>COPPER</p>",NA,NA,1,NA,NA,"metal","produce","old","COPPER"
1680457876923,"pureproduce","0.0-14.0-0.126","List3","test",669.600000023842,"05oul6dvbxopcnb",535890,229,"html-keyboard-response",NA,0,"<p style='font-size: 48px;'>FLUTE</p>",NA,NA,1,NA,NA,"musical instrument","read","new","FLUTE"
1680457876923,"pureproduce","0.0-14.0-0.127","List3","test",730.899999976158,"05oul6dvbxopcnb",537133,230,"html-keyboard-response",NA,0,"<p style='font-size: 48px;'>MOCCASINS</p>",NA,NA,1,NA,NA,"footware","new","new","MOCCASINS"
1680457876923,"pureproduce","0.0-14.0-0.128","List3","test",739.399999976158,"05oul6dvbxopcnb",538379,231,"html-keyboard-response",NA,0,"<p style='font-size: 48px;'>HILL</p>",NA,NA,1,NA,NA,"natural earth formation","produce","new","HILL"
1680457876923,"pureproduce","0.0-14.0-0.129","List3","test",735.899999976158,"05oul6dvbxopcnb",539630,232,"html-keyboard-response",NA,0,"<p style='font-size: 48px;'>KIWI</p>",NA,NA,0,NA,NA,"fruit","produce","old","KIWI"
1680457876923,"pureproduce","0.0-14.0-0.130","List3","test",802.900000095367,"05oul6dvbxopcnb",540952,233,"html-keyboard-response",NA,0,"<p style='font-size: 48px;'>CHAIR</p>",NA,NA,1,NA,NA,"article of furniture","new","new","CHAIR"
1680457876923,"pureproduce","0.0-14.0-0.131","List3","test",645.600000023842,"05oul6dvbxopcnb",542108,234,"html-keyboard-response",NA,0,"<p style='font-size: 48px;'>EAGLE</p>",NA,NA,1,NA,NA,"bird","new","new","EAGLE"
1680457876923,"pureproduce","0.0-14.0-0.132","List3","test",714.799999952316,"05oul6dvbxopcnb",543337,235,"html-keyboard-response",NA,0,"<p style='font-size: 48px;'>GOLD</p>",NA,NA,1,NA,NA,"metal","produce","new","GOLD"
1680457876923,"pureproduce","0.0-14.0-0.133","List3","test",657.700000047684,"05oul6dvbxopcnb",544500,236,"html-keyboard-response",NA,0,"<p style='font-size: 48px;'>HORNET</p>",NA,NA,0,NA,NA,"insect","read","old","HORNET"
1680457876923,"pureproduce","0.0-14.0-0.134","List3","test",840.299999952316,"05oul6dvbxopcnb",545852,237,"html-keyboard-response",NA,1,"<p style='font-size: 48px;'>CELERY</p>",NA,NA,1,NA,NA,"vegetable","read","old","CELERY"
1680457876923,"pureproduce","0.0-14.0-0.135","List3","test",798.5,"05oul6dvbxopcnb",547167,238,"html-keyboard-response",NA,1,"<p style='font-size: 48px;'>PANTS</p>",NA,NA,1,NA,NA,"article of clothing","read","old","PANTS"
1680457876923,"pureproduce","0.0-14.0-0.136","List3","test",666.900000095367,"05oul6dvbxopcnb",548341,239,"html-keyboard-response",NA,1,"<p style='font-size: 48px;'>RASPBERRY</p>",NA,NA,1,NA,NA,"fruit","produce","old","RASPBERRY"
1680457876923,"pureproduce","0.0-14.0-0.137","List3","test",814.300000071526,"05oul6dvbxopcnb",549674,240,"html-keyboard-response",NA,1,"<p style='font-size: 48px;'>COTTON</p>",NA,NA,1,NA,NA,"type of fabric","produce","old","COTTON"
1680457876923,"pureproduce","0.0-14.0-0.138","List3","test",716.600000023842,"05oul6dvbxopcnb",550899,241,"html-keyboard-response",NA,1,"<p style='font-size: 48px;'>IOWA</p>",NA,NA,1,NA,NA,"state","read","old","IOWA"
1680457876923,"pureproduce","0.0-14.0-0.139","List3","test",885.100000023842,"05oul6dvbxopcnb",552302,242,"html-keyboard-response",NA,1,"<p style='font-size: 48px;'>CAULIFLOWER</p>",NA,NA,1,NA,NA,"vegetable","read","old","CAULIFLOWER"
1680457876923,"pureproduce","0.0-14.0-0.140","List3","test",949.800000071526,"05oul6dvbxopcnb",553772,243,"html-keyboard-response",NA,1,"<p style='font-size: 48px;'>EARTHQUAKE</p>",NA,NA,1,NA,NA,"weather phenomenon","produce","old","EARTHQUAKE"
1680457876923,"pureproduce","0.0-14.0-0.141","List3","test",805.100000023842,"05oul6dvbxopcnb",555083,244,"html-keyboard-response",NA,0,"<p style='font-size: 48px;'>SPINACH</p>",NA,NA,0,NA,NA,"vegetable","read","old","SPINACH"
1680457876923,"pureproduce","0.0-14.0-0.142","List3","test",836,"05oul6dvbxopcnb",556435,245,"html-keyboard-response",NA,0,"<p style='font-size: 48px;'>TANGO</p>",NA,NA,1,NA,NA,"type of dance","new","new","TANGO"
1680457876923,"pureproduce","0.0-14.0-0.143","List3","test",667.100000023842,"05oul6dvbxopcnb",557620,246,"html-keyboard-response",NA,1,"<p style='font-size: 48px;'>TUNA</p>",NA,NA,1,NA,NA,"fish","read","old","TUNA"
1680473609128,"pureread","0.0-14.0-0.0","List1","test",2268,"0l8eaads3zz4nol",371809,103,"html-keyboard-response",NA,1,"<p style='font-size: 48px;'>HUMMINGBIRD</p>",NA,NA,1,NA,NA,"bird","read","old","HUMMINGBIRD"
1680473609128,"pureread","0.0-14.0-0.1","List1","test",731,"0l8eaads3zz4nol",373044,104,"html-keyboard-response",NA,0,"<p style='font-size: 48px;'>SNOW</p>",NA,NA,1,NA,NA,"weather phenomenon","new","new","SNOW"
1680473609128,"pureread","0.0-14.0-0.2","List1","test",645,"0l8eaads3zz4nol",374192,105,"html-keyboard-response",NA,1,"<p style='font-size: 48px;'>AMETHYST</p>",NA,NA,1,NA,NA,"precious stone","produce","old","AMETHYST"
1680473609128,"pureread","0.0-14.0-0.3","List1","test",768,"0l8eaads3zz4nol",375462,106,"html-keyboard-response",NA,1,"<p style='font-size: 48px;'>CAULIFLOWER</p>",NA,NA,0,NA,NA,"vegetable","new","new","CAULIFLOWER"
1680473609128,"pureread","0.0-14.0-0.4","List1","test",795,"0l8eaads3zz4nol",376759,107,"html-keyboard-response",NA,1,"<p style='font-size: 48px;'>OFFENSE</p>",NA,NA,1,NA,NA,"football position","read","old","OFFENSE"
1680473609128,"pureread","0.0-14.0-0.5","List1","test",898,"0l8eaads3zz4nol",378160,108,"html-keyboard-response",NA,0,"<p style='font-size: 48px;'>MOCCASINS</p>",NA,NA,0,NA,NA,"footware","read","old","MOCCASINS"
1680473609128,"pureread","0.0-14.0-0.6","List1","test",767,"0l8eaads3zz4nol",379431,109,"html-keyboard-response",NA,0,"<p style='font-size: 48px;'>SLIPPERS</p>",NA,NA,1,NA,NA,"footware","read","new","SLIPPERS"
1680473609128,"pureread","0.0-14.0-0.7","List1","test",964,"0l8eaads3zz4nol",380897,110,"html-keyboard-response",NA,0,"<p style='font-size: 48px;'>CHAIR</p>",NA,NA,0,NA,NA,"article of furniture","produce","old","CHAIR"
1680473609128,"pureread","0.0-14.0-0.8","List1","test",745.000000000058,"0l8eaads3zz4nol",382145,111,"html-keyboard-response",NA,1,"<p style='font-size: 48px;'>BED</p>",NA,NA,1,NA,NA,"article of furniture","produce","old","BED"
1680473609128,"pureread","0.0-14.0-0.9","List1","test",900,"0l8eaads3zz4nol",383548,112,"html-keyboard-response",NA,1,"<p style='font-size: 48px;'>GUARD</p>",NA,NA,1,NA,NA,"football position","read","old","GUARD"
1680473609128,"pureread","0.0-14.0-0.10","List1","test",663,"0l8eaads3zz4nol",384714,113,"html-keyboard-response",NA,0,"<p style='font-size: 48px;'>FERRY</p>",NA,NA,1,NA,NA,"type of boat","read","new","FERRY"
1680473609128,"pureread","0.0-14.0-0.11","List1","test",696,"0l8eaads3zz4nol",385914,114,"html-keyboard-response",NA,0,"<p style='font-size: 48px;'>RAFT</p>",NA,NA,1,NA,NA,"type of boat","read","new","RAFT"
1680473609128,"pureread","0.0-14.0-0.12","List1","test",733,"0l8eaads3zz4nol",387150,115,"html-keyboard-response",NA,1,"<p style='font-size: 48px;'>SAW</p>",NA,NA,1,NA,NA,"carpenter tool","produce","old","SAW"
1680473609128,"pureread","0.0-14.0-0.13","List1","test",718.000000000058,"0l8eaads3zz4nol",388371,116,"html-keyboard-response",NA,0,"<p style='font-size: 48px;'>POPE</p>",NA,NA,1,NA,NA,"member of clergy","produce","new","POPE"
1680473609128,"pureread","0.0-14.0-0.14","List1","test",777,"0l8eaads3zz4nol",389650,117,"html-keyboard-response",NA,0,"<p style='font-size: 48px;'>IRON</p>",NA,NA,1,NA,NA,"metal","new","new","IRON"
1680473609128,"pureread","0.0-14.0-0.15","List1","test",1331.00000000006,"0l8eaads3zz4nol",391483,118,"html-keyboard-response",NA,1,"<p style='font-size: 48px;'>DRILL</p>",NA,NA,1,NA,NA,"carpenter tool","produce","old","DRILL"
1680473609128,"pureread","0.0-14.0-0.16","List1","test",753,"0l8eaads3zz4nol",392740,119,"html-keyboard-response",NA,0,"<p style='font-size: 48px;'>SUBMARINE</p>",NA,NA,0,NA,NA,"type of boat","read","old","SUBMARINE"
1680473609128,"pureread","0.0-14.0-0.17","List1","test",2226,"0l8eaads3zz4nol",395469,120,"html-keyboard-response",NA,0,"<p style='font-size: 48px;'>STEEL</p>",NA,NA,1,NA,NA,"metal","new","new","STEEL"
1680473609128,"pureread","0.0-14.0-0.18","List1","test",733.999999999942,"0l8eaads3zz4nol",396706,121,"html-keyboard-response",NA,1,"<p style='font-size: 48px;'>MAGNESIUM</p>",NA,NA,0,NA,NA,"chemical element","produce","new","MAGNESIUM"
1680473609128,"pureread","0.0-14.0-0.19","List1","test",648,"0l8eaads3zz4nol",397856,122,"html-keyboard-response",NA,1,"<p style='font-size: 48px;'>TACKLE</p>",NA,NA,1,NA,NA,"football position","read","old","TACKLE"
1680473609128,"pureread","0.0-14.0-0.20","List1","test",719,"0l8eaads3zz4nol",399079,123,"html-keyboard-response",NA,0,"<p style='font-size: 48px;'>LITHIUM</p>",NA,NA,1,NA,NA,"chemical element","produce","new","LITHIUM"
1680473609128,"pureread","0.0-14.0-0.21","List1","test",808,"0l8eaads3zz4nol",400390,124,"html-keyboard-response",NA,1,"<p style='font-size: 48px;'>KEROSENE</p>",NA,NA,1,NA,NA,"type of fuel","produce","old","KEROSENE"
1680473609128,"pureread","0.0-14.0-0.22","List1","test",797,"0l8eaads3zz4nol",401690,125,"html-keyboard-response",NA,0,"<p style='font-size: 48px;'>CALCIUM</p>",NA,NA,0,NA,NA,"chemical element","produce","old","CALCIUM"
1680473609128,"pureread","0.0-14.0-0.23","List1","test",837,"0l8eaads3zz4nol",403030,126,"html-keyboard-response",NA,0,"<p style='font-size: 48px;'>SAPPHIRE</p>",NA,NA,0,NA,NA,"precious stone","produce","old","SAPPHIRE"
1680473609128,"pureread","0.0-14.0-0.24","List1","test",817,"0l8eaads3zz4nol",404350,127,"html-keyboard-response",NA,1,"<p style='font-size: 48px;'>HAMMER</p>",NA,NA,1,NA,NA,"carpenter tool","produce","old","HAMMER"
1680473609128,"pureread","0.0-14.0-0.25","List1","test",904.999999999942,"0l8eaads3zz4nol",405758,128,"html-keyboard-response",NA,0,"<p style='font-size: 48px;'>SOFA</p>",NA,NA,1,NA,NA,"article of furniture","produce","new","SOFA"
1680473609128,"pureread","0.0-14.0-0.26","List1","test",750,"0l8eaads3zz4nol",407011,129,"html-keyboard-response",NA,0,"<p style='font-size: 48px;'>SKIRT</p>",NA,NA,1,NA,NA,"article of clothing","new","new","SKIRT"
1680473609128,"pureread","0.0-14.0-0.27","List1","test",697.999999999942,"0l8eaads3zz4nol",408212,130,"html-keyboard-response",NA,0,"<p style='font-size: 48px;'>COKE</p>",NA,NA,1,NA,NA,"nonalcoholic beverage","read","new","COKE"
1680473609128,"pureread","0.0-14.0-0.28","List1","test",801,"0l8eaads3zz4nol",409516,131,"html-keyboard-response",NA,1,"<p style='font-size: 48px;'>RECEIVER</p>",NA,NA,1,NA,NA,"football position","read","old","RECEIVER"
1680473609128,"pureread","0.0-14.0-0.29","List1","test",657.999999999942,"0l8eaads3zz4nol",410677,132,"html-keyboard-response",NA,0,"<p style='font-size: 48px;'>WALTZ</p>",NA,NA,1,NA,NA,"type of dance","read","new","WALTZ"
1680473609128,"pureread","0.0-14.0-0.30","List1","test",784.999999999942,"0l8eaads3zz4nol",411965,133,"html-keyboard-response",NA,0,"<p style='font-size: 48px;'>PLIERS</p>",NA,NA,0,NA,NA,"carpenter tool","produce","old","PLIERS"
1680473609128,"pureread","0.0-14.0-0.31","List1","test",578,"0l8eaads3zz4nol",413046,134,"html-keyboard-response",NA,0,"<p style='font-size: 48px;'>TROUT</p>",NA,NA,1,NA,NA,"fish","new","new","TROUT"
1680473609128,"pureread","0.0-14.0-0.32","List1","test",838,"0l8eaads3zz4nol",414387,135,"html-keyboard-response",NA,1,"<p style='font-size: 48px;'>OTTOMAN</p>",NA,NA,1,NA,NA,"article of furniture","produce","old","OTTOMAN"
1680473609128,"pureread","0.0-14.0-0.33","List1","test",709,"0l8eaads3zz4nol",415598,136,"html-keyboard-response",NA,0,"<p style='font-size: 48px;'>MAMBO</p>",NA,NA,1,NA,NA,"type of dance","read","new","MAMBO"
1680473609128,"pureread","0.0-14.0-0.34","List1","test",629,"0l8eaads3zz4nol",416730,137,"html-keyboard-response",NA,0,"<p style='font-size: 48px;'>CLEATS</p>",NA,NA,1,NA,NA,"footware","read","new","CLEATS"
1680473609128,"pureread","0.0-14.0-0.35","List1","test",851,"0l8eaads3zz4nol",418085,138,"html-keyboard-response",NA,0,"<p style='font-size: 48px;'>HEELS</p>",NA,NA,0,NA,NA,"footware","read","old","HEELS"
1680473609128,"pureread","0.0-14.0-0.36","List1","test",935,"0l8eaads3zz4nol",419522,139,"html-keyboard-response",NA,1,"<p style='font-size: 48px;'>ARMOIRE</p>",NA,NA,1,NA,NA,"article of furniture","produce","old","ARMOIRE"
1680473609128,"pureread","0.0-14.0-0.37","List1","test",662.999999999942,"0l8eaads3zz4nol",420688,140,"html-keyboard-response",NA,0,"<p style='font-size: 48px;'>MOUNTAIN</p>",NA,NA,1,NA,NA,"natural earth formation","new","new","MOUNTAIN"
1680473609128,"pureread","0.0-14.0-0.38","List1","test",734.999999999942,"0l8eaads3zz4nol",421927,141,"html-keyboard-response",NA,0,"<p style='font-size: 48px;'>ANT</p>",NA,NA,1,NA,NA,"insect","new","new","ANT"
1680473609128,"pureread","0.0-14.0-0.39","List1","test",695.999999999942,"0l8eaads3zz4nol",423125,142,"html-keyboard-response",NA,1,"<p style='font-size: 48px;'>SOLAR</p>",NA,NA,1,NA,NA,"type of fuel","produce","old","SOLAR"
1680473609128,"pureread","0.0-14.0-0.40","List1","test",800,"0l8eaads3zz4nol",424428,143,"html-keyboard-response",NA,1,"<p style='font-size: 48px;'>CENTER</p>",NA,NA,0,NA,NA,"football position","read","new","CENTER"
1680473609128,"pureread","0.0-14.0-0.41","List1","test",871,"0l8eaads3zz4nol",425803,144,"html-keyboard-response",NA,1,"<p style='font-size: 48px;'>PIANO</p>",NA,NA,0,NA,NA,"musical instrument","new","new","PIANO"
1680473609128,"pureread","0.0-14.0-0.42","List1","test",919,"0l8eaads3zz4nol",427224,145,"html-keyboard-response",NA,0,"<p style='font-size: 48px;'>SANDER</p>",NA,NA,1,NA,NA,"carpenter tool","produce","new","SANDER"
1680473609128,"pureread","0.0-14.0-0.43","List1","test",748.999999999942,"0l8eaads3zz4nol",428476,146,"html-keyboard-response",NA,0,"<p style='font-size: 48px;'>LOUISIANA</p>",NA,NA,1,NA,NA,"state","new","new","LOUISIANA"
1680473609128,"pureread","0.0-14.0-0.44","List1","test",562,"0l8eaads3zz4nol",429541,147,"html-keyboard-response",NA,0,"<p style='font-size: 48px;'>TEXAS</p>",NA,NA,1,NA,NA,"state","new","new","TEXAS"
1680473609128,"pureread","0.0-14.0-0.45","List1","test",1032,"0l8eaads3zz4nol",431076,148,"html-keyboard-response",NA,1,"<p style='font-size: 48px;'>TABLE</p>",NA,NA,0,NA,NA,"article of furniture","produce","new","TABLE"
1680473609128,"pureread","0.0-14.0-0.46","List1","test",695,"0l8eaads3zz4nol",432274,149,"html-keyboard-response",NA,1,"<p style='font-size: 48px;'>PREACHER</p>",NA,NA,1,NA,NA,"member of clergy","produce","old","PREACHER"
1680473609128,"pureread","0.0-14.0-0.47","List1","test",764,"0l8eaads3zz4nol",433541,150,"html-keyboard-response",NA,0,"<p style='font-size: 48px;'>RAVEN</p>",NA,NA,1,NA,NA,"bird","read","new","RAVEN"
1680473609128,"pureread","0.0-14.0-0.48","List1","test",664.000000000058,"0l8eaads3zz4nol",434708,151,"html-keyboard-response",NA,1,"<p style='font-size: 48px;'>MILK</p>",NA,NA,1,NA,NA,"nonalcoholic beverage","read","old","MILK"
1680473609128,"pureread","0.0-14.0-0.49","List1","test",615,"0l8eaads3zz4nol",435825,152,"html-keyboard-response",NA,1,"<p style='font-size: 48px;'>EAGLE</p>",NA,NA,1,NA,NA,"bird","read","old","EAGLE"
1680473609128,"pureread","0.0-14.0-0.50","List1","test",721.999999999942,"0l8eaads3zz4nol",437050,153,"html-keyboard-response",NA,1,"<p style='font-size: 48px;'>DEACON</p>",NA,NA,1,NA,NA,"member of clergy","produce","old","DEACON"
1680473609128,"pureread","0.0-14.0-0.51","List1","test",724,"0l8eaads3zz4nol",438277,154,"html-keyboard-response",NA,0,"<p style='font-size: 48px;'>HAWK</p>",NA,NA,0,NA,NA,"bird","read","old","HAWK"
1680473609128,"pureread","0.0-14.0-0.52","List1","test",1049.99999999994,"0l8eaads3zz4nol",439830,155,"html-keyboard-response",NA,0,"<p style='font-size: 48px;'>RAIN</p>",NA,NA,1,NA,NA,"weather phenomenon","new","new","RAIN"
1680473609128,"pureread","0.0-14.0-0.53","List1","test",897,"0l8eaads3zz4nol",441228,156,"html-keyboard-response",NA,0,"<p style='font-size: 48px;'>DIESEL</p>",NA,NA,0,NA,NA,"type of fuel","produce","old","DIESEL"
1680473609128,"pureread","0.0-14.0-0.54","List1","test",672,"0l8eaads3zz4nol",442403,157,"html-keyboard-response",NA,0,"<p style='font-size: 48px;'>LOVESEAT</p>",NA,NA,0,NA,NA,"article of furniture","produce","old","LOVESEAT"
1680473609128,"pureread","0.0-14.0-0.55","List1","test",761.000000000058,"0l8eaads3zz4nol",443666,158,"html-keyboard-response",NA,0,"<p style='font-size: 48px;'>OFFICER</p>",NA,NA,1,NA,NA,"military title","new","new","OFFICER"
1680473609128,"pureread","0.0-14.0-0.56","List1","test",610,"0l8eaads3zz4nol",444779,159,"html-keyboard-response",NA,0,"<p style='font-size: 48px;'>YACHT</p>",NA,NA,0,NA,NA,"type of boat","read","old","YACHT"
1680473609128,"pureread","0.0-14.0-0.57","List1","test",983,"0l8eaads3zz4nol",446265,160,"html-keyboard-response",NA,0,"<p style='font-size: 48px;'>PEACH</p>",NA,NA,1,NA,NA,"fruit","new","new","PEACH"
1680473609128,"pureread","0.0-14.0-0.58","List1","test",681.999999999942,"0l8eaads3zz4nol",447449,161,"html-keyboard-response",NA,0,"<p style='font-size: 48px;'>FOXTROT</p>",NA,NA,1,NA,NA,"type of dance","read","new","FOXTROT"
1680473609128,"pureread","0.0-14.0-0.59","List1","test",714,"0l8eaads3zz4nol",448665,162,"html-keyboard-response",NA,1,"<p style='font-size: 48px;'>SALSA</p>",NA,NA,1,NA,NA,"type of dance","read","old","SALSA"
1680473609128,"pureread","0.0-14.0-0.60","List1","test",649,"0l8eaads3zz4nol",449817,163,"html-keyboard-response",NA,1,"<p style='font-size: 48px;'>PASTOR</p>",NA,NA,0,NA,NA,"member of clergy","produce","new","PASTOR"
1680473609128,"pureread","0.0-14.0-0.61","List1","test",781.000000000058,"0l8eaads3zz4nol",451101,164,"html-keyboard-response",NA,1,"<p style='font-size: 48px;'>SILVER</p>",NA,NA,0,NA,NA,"metal","new","new","SILVER"
1680473609128,"pureread","0.0-14.0-0.62","List1","test",683.000000000058,"0l8eaads3zz4nol",452286,165,"html-keyboard-response",NA,1,"<p style='font-size: 48px;'>DEFENSE</p>",NA,NA,0,NA,NA,"football position","read","new","DEFENSE"
1680473609128,"pureread","0.0-14.0-0.63","List1","test",638,"0l8eaads3zz4nol",453426,166,"html-keyboard-response",NA,0,"<p style='font-size: 48px;'>VIOLIN</p>",NA,NA,1,NA,NA,"musical instrument","new","new","VIOLIN"
1680473609128,"pureread","0.0-14.0-0.64","List1","test",642,"0l8eaads3zz4nol",454571,167,"html-keyboard-response",NA,0,"<p style='font-size: 48px;'>JUICE</p>",NA,NA,0,NA,NA,"nonalcoholic beverage","read","old","JUICE"
1680473609128,"pureread","0.0-14.0-0.65","List1","test",712.000000000058,"0l8eaads3zz4nol",455786,168,"html-keyboard-response",NA,0,"<p style='font-size: 48px;'>PANTS</p>",NA,NA,1,NA,NA,"article of clothing","new","new","PANTS"
1680473609128,"pureread","0.0-14.0-0.66","List1","test",732,"0l8eaads3zz4nol",457021,169,"html-keyboard-response",NA,1,"<p style='font-size: 48px;'>GAS</p>",NA,NA,1,NA,NA,"type of fuel","produce","old","GAS"
1680473609128,"pureread","0.0-14.0-0.67","List1","test",565,"0l8eaads3zz4nol",458089,170,"html-keyboard-response",NA,0,"<p style='font-size: 48px;'>COFFEE</p>",NA,NA,0,NA,NA,"nonalcoholic beverage","read","old","COFFEE"
1680473609128,"pureread","0.0-14.0-0.68","List1","test",715,"0l8eaads3zz4nol",459307,171,"html-keyboard-response",NA,0,"<p style='font-size: 48px;'>PROPANE</p>",NA,NA,1,NA,NA,"type of fuel","produce","new","PROPANE"
1680473609128,"pureread","0.0-14.0-0.69","List1","test",815.000000000058,"0l8eaads3zz4nol",460624,172,"html-keyboard-response",NA,0,"<p style='font-size: 48px;'>LINEMAN</p>",NA,NA,0,NA,NA,"football position","read","old","LINEMAN"
1680473609128,"pureread","0.0-14.0-0.70","List1","test",932,"0l8eaads3zz4nol",462058,173,"html-keyboard-response",NA,0,"<p style='font-size: 48px;'>WOOL</p>",NA,NA,1,NA,NA,"type of fabric","new","new","WOOL"
1680473609128,"pureread","0.0-14.0-0.71","List1","test",1201,"0l8eaads3zz4nol",463763,174,"html-keyboard-response",NA,0,"<p style='font-size: 48px;'>EMERALD</p>",NA,NA,0,NA,NA,"precious stone","produce","old","EMERALD"
1680473609128,"pureread","0.0-14.0-0.72","List1","test",860,"0l8eaads3zz4nol",465125,175,"html-keyboard-response",NA,1,"<p style='font-size: 48px;'>URANIUM</p>",NA,NA,0,NA,NA,"chemical element","produce","new","URANIUM"
1680473609128,"pureread","0.0-14.0-0.73","List1","test",632,"0l8eaads3zz4nol",466258,176,"html-keyboard-response",NA,0,"<p style='font-size: 48px;'>OCEAN</p>",NA,NA,1,NA,NA,"natural earth formation","new","new","OCEAN"
1680473609128,"pureread","0.0-14.0-0.74","List1","test",657,"0l8eaads3zz4nol",467417,177,"html-keyboard-response",NA,1,"<p style='font-size: 48px;'>BLUEJAY</p>",NA,NA,1,NA,NA,"bird","read","old","BLUEJAY"
1680473609128,"pureread","0.0-14.0-0.75","List1","test",663,"0l8eaads3zz4nol",468583,178,"html-keyboard-response",NA,1,"<p style='font-size: 48px;'>QUARTERBACK</p>",NA,NA,1,NA,NA,"football position","read","old","QUARTERBACK"
1680473609128,"pureread","0.0-14.0-0.76","List1","test",749,"0l8eaads3zz4nol",469835,179,"html-keyboard-response",NA,1,"<p style='font-size: 48px;'>PERCH</p>",NA,NA,0,NA,NA,"fish","new","new","PERCH"
1680473609128,"pureread","0.0-14.0-0.77","List1","test",807.999999999942,"0l8eaads3zz4nol",471146,180,"html-keyboard-response",NA,1,"<p style='font-size: 48px;'>BISHOP</p>",NA,NA,1,NA,NA,"member of clergy","produce","old","BISHOP"
1680473609128,"pureread","0.0-14.0-0.78","List1","test",812,"0l8eaads3zz4nol",472461,181,"html-keyboard-response",NA,0,"<p style='font-size: 48px;'>ORANGE</p>",NA,NA,1,NA,NA,"fruit","new","new","ORANGE"
1680473609128,"pureread","0.0-14.0-0.79","List1","test",918,"0l8eaads3zz4nol",473882,182,"html-keyboard-response",NA,0,"<p style='font-size: 48px;'>QUARTZ</p>",NA,NA,1,NA,NA,"precious stone","produce","new","QUARTZ"
1680473609128,"pureread","0.0-14.0-0.80","List1","test",746,"0l8eaads3zz4nol",475130,183,"html-keyboard-response",NA,0,"<p style='font-size: 48px;'>ELECTRIC</p>",NA,NA,1,NA,NA,"type of fuel","produce","new","ELECTRIC"
1680473609128,"pureread","0.0-14.0-0.81","List1","test",768,"0l8eaads3zz4nol",476400,184,"html-keyboard-response",NA,0,"<p style='font-size: 48px;'>PRIEST</p>",NA,NA,0,NA,NA,"member of clergy","produce","old","PRIEST"
1680473609128,"pureread","0.0-14.0-0.82","List1","test",1180,"0l8eaads3zz4nol",478082,185,"html-keyboard-response",NA,0,"<p style='font-size: 48px;'>DUCK</p>",NA,NA,0,NA,NA,"bird","read","old","DUCK"
1680473609128,"pureread","0.0-14.0-0.83","List1","test",736,"0l8eaads3zz4nol",479320,186,"html-keyboard-response",NA,1,"<p style='font-size: 48px;'>OSTRICH</p>",NA,NA,1,NA,NA,"bird","read","old","OSTRICH"
1680473609128,"pureread","0.0-14.0-0.84","List1","test",733,"0l8eaads3zz4nol",480556,187,"html-keyboard-response",NA,1,"<p style='font-size: 48px;'>BALLET</p>",NA,NA,1,NA,NA,"type of dance","read","old","BALLET"
1680473609128,"pureread","0.0-14.0-0.85","List1","test",675.999999999942,"0l8eaads3zz4nol",481735,188,"html-keyboard-response",NA,0,"<p style='font-size: 48px;'>BOOTS</p>",NA,NA,0,NA,NA,"footware","read","old","BOOTS"
1680473609128,"pureread","0.0-14.0-0.86","List1","test",721,"0l8eaads3zz4nol",482959,189,"html-keyboard-response",NA,0,"<p style='font-size: 48px;'>DENIM</p>",NA,NA,1,NA,NA,"type of fabric","new","new","DENIM"
1680473609128,"pureread","0.0-14.0-0.87","List1","test",810,"0l8eaads3zz4nol",484271,190,"html-keyboard-response",NA,1,"<p style='font-size: 48px;'>TITANIC</p>",NA,NA,1,NA,NA,"type of boat","read","old","TITANIC"
1680473609128,"pureread","0.0-14.0-0.88","List1","test",715,"0l8eaads3zz4nol",485489,191,"html-keyboard-response",NA,1,"<p style='font-size: 48px;'>FLIPFLOPS</p>",NA,NA,1,NA,NA,"footware","read","old","FLIPFLOPS"
1680473609128,"pureread","0.0-14.0-0.89","List1","test",879.999999999942,"0l8eaads3zz4nol",486871,192,"html-keyboard-response",NA,1,"<p style='font-size: 48px;'>BATTLESHIP</p>",NA,NA,0,NA,NA,"type of boat","read","new","BATTLESHIP"
1680473609128,"pureread","0.0-14.0-0.90","List1","test",821.999999999942,"0l8eaads3zz4nol",488195,193,"html-keyboard-response",NA,1,"<p style='font-size: 48px;'>PETROLEUM</p>",NA,NA,0,NA,NA,"type of fuel","produce","new","PETROLEUM"
1680473609128,"pureread","0.0-14.0-0.91","List1","test",759,"0l8eaads3zz4nol",489456,194,"html-keyboard-response",NA,1,"<p style='font-size: 48px;'>WATER</p>",NA,NA,1,NA,NA,"nonalcoholic beverage","read","old","WATER"
1680473609128,"pureread","0.0-14.0-0.92","List1","test",664,"0l8eaads3zz4nol",490622,195,"html-keyboard-response",NA,1,"<p style='font-size: 48px;'>SCREWDRIVER</p>",NA,NA,1,NA,NA,"carpenter tool","produce","old","SCREWDRIVER"
1680473609128,"pureread","0.0-14.0-0.93","List1","test",1106,"0l8eaads3zz4nol",492231,196,"html-keyboard-response",NA,0,"<p style='font-size: 48px;'>COAL</p>",NA,NA,0,NA,NA,"type of fuel","produce","old","COAL"
1680473609128,"pureread","0.0-14.0-0.94","List1","test",699,"0l8eaads3zz4nol",493432,197,"html-keyboard-response",NA,0,"<p style='font-size: 48px;'>TOPAZ</p>",NA,NA,1,NA,NA,"precious stone","produce","new","TOPAZ"
1680473609128,"pureread","0.0-14.0-0.95","List1","test",739,"0l8eaads3zz4nol",494675,198,"html-keyboard-response",NA,0,"<p style='font-size: 48px;'>SODA</p>",NA,NA,1,NA,NA,"nonalcoholic beverage","read","new","SODA"
1680473609128,"pureread","0.0-14.0-0.96","List1","test",797,"0l8eaads3zz4nol",495975,199,"html-keyboard-response",NA,1,"<p style='font-size: 48px;'>CANOE</p>",NA,NA,1,NA,NA,"type of boat","read","old","CANOE"
1680473609128,"pureread","0.0-14.0-0.97","List1","test",764,"0l8eaads3zz4nol",497242,200,"html-keyboard-response",NA,1,"<p style='font-size: 48px;'>LEMONADE</p>",NA,NA,1,NA,NA,"nonalcoholic beverage","read","old","LEMONADE"
1680473609128,"pureread","0.0-14.0-0.98","List1","test",752,"0l8eaads3zz4nol",498497,201,"html-keyboard-response",NA,0,"<p style='font-size: 48px;'>LIEUTENANT</p>",NA,NA,1,NA,NA,"military title","new","new","LIEUTENANT"
1680473609128,"pureread","0.0-14.0-0.99","List1","test",1077,"0l8eaads3zz4nol",500077,202,"html-keyboard-response",NA,0,"<p style='font-size: 48px;'>VERMONT</p>",NA,NA,1,NA,NA,"state","new","new","VERMONT"
1680473609128,"pureread","0.0-14.0-0.100","List1","test",764.999999999942,"0l8eaads3zz4nol",501344,203,"html-keyboard-response",NA,0,"<p style='font-size: 48px;'>HYDROGEN</p>",NA,NA,0,NA,NA,"chemical element","produce","old","HYDROGEN"
1680473609128,"pureread","0.0-14.0-0.101","List1","test",1034,"0l8eaads3zz4nol",502881,204,"html-keyboard-response",NA,0,"<p style='font-size: 48px;'>CORNERBACK</p>",NA,NA,1,NA,NA,"football position","read","new","CORNERBACK"
1680473609128,"pureread","0.0-14.0-0.102","List1","test",1001,"0l8eaads3zz4nol",504383,205,"html-keyboard-response",NA,0,"<p style='font-size: 48px;'>SPINACH</p>",NA,NA,1,NA,NA,"vegetable","new","new","SPINACH"
1680473609128,"pureread","0.0-14.0-0.103","List1","test",801.000000000058,"0l8eaads3zz4nol",505688,206,"html-keyboard-response",NA,1,"<p style='font-size: 48px;'>BALLROOM</p>",NA,NA,1,NA,NA,"type of dance","read","old","BALLROOM"
1680473609128,"pureread","0.0-14.0-0.104","List1","test",659,"0l8eaads3zz4nol",506850,207,"html-keyboard-response",NA,1,"<p style='font-size: 48px;'>SCREW</p>",NA,NA,0,NA,NA,"carpenter tool","produce","new","SCREW"
1680473609128,"pureread","0.0-14.0-0.105","List1","test",629,"0l8eaads3zz4nol",507981,208,"html-keyboard-response",NA,0,"<p style='font-size: 48px;'>TORNADO</p>",NA,NA,1,NA,NA,"weather phenomenon","new","new","TORNADO"
1680473609128,"pureread","0.0-14.0-0.106","List1","test",1174.00000000006,"0l8eaads3zz4nol",509658,209,"html-keyboard-response",NA,1,"<p style='font-size: 48px;'>PEARL</p>",NA,NA,1,NA,NA,"precious stone","produce","old","PEARL"
1680473609128,"pureread","0.0-14.0-0.107","List1","test",745,"0l8eaads3zz4nol",510907,210,"html-keyboard-response",NA,1,"<p style='font-size: 48px;'>SODIUM</p>",NA,NA,1,NA,NA,"chemical element","produce","old","SODIUM"
1680473609128,"pureread","0.0-14.0-0.108","List1","test",607.999999999942,"0l8eaads3zz4nol",512017,211,"html-keyboard-response",NA,0,"<p style='font-size: 48px;'>TEA</p>",NA,NA,1,NA,NA,"nonalcoholic beverage","read","new","TEA"
1680473609128,"pureread","0.0-14.0-0.109","List1","test",833,"0l8eaads3zz4nol",513353,212,"html-keyboard-response",NA,1,"<p style='font-size: 48px;'>KAYAK</p>",NA,NA,1,NA,NA,"type of boat","read","old","KAYAK"
1680473609128,"pureread","0.0-14.0-0.110","List1","test",647.000000000058,"0l8eaads3zz4nol",514503,213,"html-keyboard-response",NA,0,"<p style='font-size: 48px;'>COTTON</p>",NA,NA,1,NA,NA,"type of fabric","new","new","COTTON"
1680473609128,"pureread","0.0-14.0-0.111","List1","test",663,"0l8eaads3zz4nol",515669,214,"html-keyboard-response",NA,1,"<p style='font-size: 48px;'>WRENCH</p>",NA,NA,1,NA,NA,"carpenter tool","produce","old","WRENCH"
1680473609128,"pureread","0.0-14.0-0.112","List1","test",715.000000000058,"0l8eaads3zz4nol",516886,215,"html-keyboard-response",NA,0,"<p style='font-size: 48px;'>NAIL</p>",NA,NA,1,NA,NA,"carpenter tool","produce","new","NAIL"
1680473609128,"pureread","0.0-14.0-0.113","List1","test",749,"0l8eaads3zz4nol",518138,216,"html-keyboard-response",NA,0,"<p style='font-size: 48px;'>COUCH</p>",NA,NA,0,NA,NA,"article of furniture","produce","old","COUCH"
1680473609128,"pureread","0.0-14.0-0.114","List1","test",798,"0l8eaads3zz4nol",519438,217,"html-keyboard-response",NA,0,"<p style='font-size: 48px;'>MOTH</p>",NA,NA,1,NA,NA,"insect","new","new","MOTH"
1680473609128,"pureread","0.0-14.0-0.115","List1","test",735,"0l8eaads3zz4nol",520676,218,"html-keyboard-response",NA,0,"<p style='font-size: 48px;'>DOVE</p>",NA,NA,1,NA,NA,"bird","read","new","DOVE"
1680473609128,"pureread","0.0-14.0-0.116","List1","test",986,"0l8eaads3zz4nol",522165,219,"html-keyboard-response",NA,1,"<p style='font-size: 48px;'>SWING</p>",NA,NA,1,NA,NA,"type of dance","read","old","SWING"
1680473609128,"pureread","0.0-14.0-0.117","List1","test",640,"0l8eaads3zz4nol",523308,220,"html-keyboard-response",NA,0,"<p style='font-size: 48px;'>POP</p>",NA,NA,0,NA,NA,"nonalcoholic beverage","read","old","POP"
1680473609128,"pureread","0.0-14.0-0.118","List1","test",1064,"0l8eaads3zz4nol",524875,221,"html-keyboard-response",NA,0,"<p style='font-size: 48px;'>CARGO</p>",NA,NA,0,NA,NA,"type of boat","read","old","CARGO"
1680473609128,"pureread","0.0-14.0-0.119","List1","test",596.999999999884,"0l8eaads3zz4nol",525975,222,"html-keyboard-response",NA,0,"<p style='font-size: 48px;'>FLY</p>",NA,NA,1,NA,NA,"insect","new","new","FLY"
1680473609128,"pureread","0.0-14.0-0.120","List1","test",623,"0l8eaads3zz4nol",527100,223,"html-keyboard-response",NA,1,"<p style='font-size: 48px;'>TURQUOISE</p>",NA,NA,1,NA,NA,"precious stone","produce","old","TURQUOISE"
1680473609128,"pureread","0.0-14.0-0.121","List1","test",958,"0l8eaads3zz4nol",528560,224,"html-keyboard-response",NA,0,"<p style='font-size: 48px;'>GUITAR</p>",NA,NA,1,NA,NA,"musical instrument","new","new","GUITAR"
1680473609128,"pureread","0.0-14.0-0.122","List1","test",781,"0l8eaads3zz4nol",529844,225,"html-keyboard-response",NA,1,"<p style='font-size: 48px;'>PRIVATE</p>",NA,NA,0,NA,NA,"military title","new","new","PRIVATE"
1680473609128,"pureread","0.0-14.0-0.123","List1","test",798,"0l8eaads3zz4nol",531145,226,"html-keyboard-response",NA,1,"<p style='font-size: 48px;'>MONK</p>",NA,NA,1,NA,NA,"member of clergy","produce","old","MONK"
1680473609128,"pureread","0.0-14.0-0.124","List1","test",782,"0l8eaads3zz4nol",532429,227,"html-keyboard-response",NA,1,"<p style='font-size: 48px;'>OXYGEN</p>",NA,NA,1,NA,NA,"chemical element","produce","old","OXYGEN"
1680473609128,"pureread","0.0-14.0-0.125","List1","test",680,"0l8eaads3zz4nol",533613,228,"html-keyboard-response",NA,0,"<p style='font-size: 48px;'>RASPBERRY</p>",NA,NA,1,NA,NA,"fruit","new","new","RASPBERRY"
1680473609128,"pureread","0.0-14.0-0.126","List1","test",818,"0l8eaads3zz4nol",534933,229,"html-keyboard-response",NA,1,"<p style='font-size: 48px;'>HALIBUT</p>",NA,NA,0,NA,NA,"fish","new","new","HALIBUT"
1680473609128,"pureread","0.0-14.0-0.127","List1","test",664,"0l8eaads3zz4nol",536100,230,"html-keyboard-response",NA,1,"<p style='font-size: 48px;'>POTASSIUM</p>",NA,NA,1,NA,NA,"chemical element","produce","old","POTASSIUM"
1680473609128,"pureread","0.0-14.0-0.128","List1","test",750,"0l8eaads3zz4nol",537352,231,"html-keyboard-response",NA,0,"<p style='font-size: 48px;'>STOOL</p>",NA,NA,1,NA,NA,"article of furniture","produce","new","STOOL"
1680473609128,"pureread","0.0-14.0-0.129","List1","test",777.000000000116,"0l8eaads3zz4nol",538632,232,"html-keyboard-response",NA,1,"<p style='font-size: 48px;'>RUBY</p>",NA,NA,1,NA,NA,"precious stone","produce","old","RUBY"
1680473609128,"pureread","0.0-14.0-0.130","List1","test",1098.00000000012,"0l8eaads3zz4nol",540233,233,"html-keyboard-response",NA,0,"<p style='font-size: 48px;'>ARCHBISHOP</p>",NA,NA,1,NA,NA,"member of clergy","produce","new","ARCHBISHOP"
1680473609128,"pureread","0.0-14.0-0.131","List1","test",783,"0l8eaads3zz4nol",541519,234,"html-keyboard-response",NA,0,"<p style='font-size: 48px;'>LOAFERS</p>",NA,NA,1,NA,NA,"footware","read","new","LOAFERS"
1680473609128,"pureread","0.0-14.0-0.132","List1","test",831,"0l8eaads3zz4nol",542852,235,"html-keyboard-response",NA,0,"<p style='font-size: 48px;'>TANGO</p>",NA,NA,0,NA,NA,"type of dance","read","old","TANGO"
1680473609128,"pureread","0.0-14.0-0.133","List1","test",772.000000000116,"0l8eaads3zz4nol",544127,236,"html-keyboard-response",NA,1,"<p style='font-size: 48px;'>ARGON</p>",NA,NA,1,NA,NA,"chemical element","produce","old","ARGON"
1680473609128,"pureread","0.0-14.0-0.134","List1","test",892,"0l8eaads3zz4nol",545523,237,"html-keyboard-response",NA,1,"<p style='font-size: 48px;'>JAZZ</p>",NA,NA,1,NA,NA,"type of dance","read","old","JAZZ"
1680473609128,"pureread","0.0-14.0-0.135","List1","test",743.999999999884,"0l8eaads3zz4nol",546770,238,"html-keyboard-response",NA,0,"<p style='font-size: 48px;'>GEMSTONE</p>",NA,NA,1,NA,NA,"precious stone","produce","new","GEMSTONE"
1680473609128,"pureread","0.0-14.0-0.136","List1","test",738,"0l8eaads3zz4nol",548009,239,"html-keyboard-response",NA,0,"<p style='font-size: 48px;'>SHIRT</p>",NA,NA,1,NA,NA,"article of clothing","new","new","SHIRT"
1680473609128,"pureread","0.0-14.0-0.137","List1","test",544,"0l8eaads3zz4nol",549056,240,"html-keyboard-response",NA,0,"<p style='font-size: 48px;'>CARROT</p>",NA,NA,1,NA,NA,"vegetable","new","new","CARROT"
1680473609128,"pureread","0.0-14.0-0.138","List1","test",516,"0l8eaads3zz4nol",550075,241,"html-keyboard-response",NA,0,"<p style='font-size: 48px;'>CLOGS</p>",NA,NA,0,NA,NA,"footware","read","old","CLOGS"
1680473609128,"pureread","0.0-14.0-0.139","List1","test",600,"0l8eaads3zz4nol",551177,242,"html-keyboard-response",NA,0,"<p style='font-size: 48px;'>VOLCANO</p>",NA,NA,1,NA,NA,"natural earth formation","new","new","VOLCANO"
1680473609128,"pureread","0.0-14.0-0.140","List1","test",576.000000000116,"0l8eaads3zz4nol",552256,243,"html-keyboard-response",NA,0,"<p style='font-size: 48px;'>NUN</p>",NA,NA,0,NA,NA,"member of clergy","produce","old","NUN"
1680473609128,"pureread","0.0-14.0-0.141","List1","test",614,"0l8eaads3zz4nol",553373,244,"html-keyboard-response",NA,0,"<p style='font-size: 48px;'>SANDALS</p>",NA,NA,0,NA,NA,"footware","read","old","SANDALS"
1680473609128,"pureread","0.0-14.0-0.142","List1","test",614.999999999884,"0l8eaads3zz4nol",554492,245,"html-keyboard-response",NA,1,"<p style='font-size: 48px;'>OIL</p>",NA,NA,1,NA,NA,"type of fuel","produce","old","OIL"
1680473609128,"pureread","0.0-14.0-0.143","List1","test",551,"0l8eaads3zz4nol",555545,246,"html-keyboard-response",NA,0,"<p style='font-size: 48px;'>SPARROW</p>",NA,NA,1,NA,NA,"bird","read","new","SPARROW"
1680461142950,"pureproduce","0.0-14.0-0.0","List1","test",1577.40000009537,"15pluxsrmt1hw2n",510358,105,"html-keyboard-response",NA,1,"<p style='font-size: 48px;'>SOLAR</p>",NA,NA,1,NA,NA,"type of fuel","produce","old","SOLAR"
1680461142950,"pureproduce","0.0-14.0-0.1","List1","test",1790.89999985695,"15pluxsrmt1hw2n",512653,106,"html-keyboard-response",NA,1,"<p style='font-size: 48px;'>DRILL</p>",NA,NA,1,NA,NA,"carpenter tool","produce","old","DRILL"
1680461142950,"pureproduce","0.0-14.0-0.2","List1","test",1813.30000019073,"15pluxsrmt1hw2n",514989,107,"html-keyboard-response",NA,0,"<p style='font-size: 48px;'>STEEL</p>",NA,NA,1,NA,NA,"metal","new","new","STEEL"
1680461142950,"pureproduce","0.0-14.0-0.3","List1","test",586.299999952316,"15pluxsrmt1hw2n",516090,108,"html-keyboard-response",NA,1,"<p style='font-size: 48px;'>TITANIC</p>",NA,NA,1,NA,NA,"type of boat","read","old","TITANIC"
1680461142950,"pureproduce","0.0-14.0-0.4","List1","test",659.100000143051,"15pluxsrmt1hw2n",517254,109,"html-keyboard-response",NA,1,"<p style='font-size: 48px;'>KAYAK</p>",NA,NA,1,NA,NA,"type of boat","read","old","KAYAK"
1680461142950,"pureproduce","0.0-14.0-0.5","List1","test",619,"15pluxsrmt1hw2n",518384,110,"html-keyboard-response",NA,1,"<p style='font-size: 48px;'>MONK</p>",NA,NA,1,NA,NA,"member of clergy","produce","old","MONK"
1680461142950,"pureproduce","0.0-14.0-0.6","List1","test",984.200000047684,"15pluxsrmt1hw2n",519871,111,"html-keyboard-response",NA,0,"<p style='font-size: 48px;'>HYDROGEN</p>",NA,NA,0,NA,NA,"chemical element","produce","old","HYDROGEN"
1680461142950,"pureproduce","0.0-14.0-0.7","List1","test",1080.29999995232,"15pluxsrmt1hw2n",521460,112,"html-keyboard-response",NA,1,"<p style='font-size: 48px;'>OTTOMAN</p>",NA,NA,1,NA,NA,"article of furniture","produce","old","OTTOMAN"
1680461142950,"pureproduce","0.0-14.0-0.8","List1","test",719.5,"15pluxsrmt1hw2n",522691,113,"html-keyboard-response",NA,1,"<p style='font-size: 48px;'>ARMOIRE</p>",NA,NA,1,NA,NA,"article of furniture","produce","old","ARMOIRE"
1680461142950,"pureproduce","0.0-14.0-0.9","List1","test",688.900000095367,"15pluxsrmt1hw2n",523894,114,"html-keyboard-response",NA,0,"<p style='font-size: 48px;'>LITHIUM</p>",NA,NA,1,NA,NA,"chemical element","produce","new","LITHIUM"
1680461142950,"pureproduce","0.0-14.0-0.10","List1","test",1009.5,"15pluxsrmt1hw2n",525409,115,"html-keyboard-response",NA,0,"<p style='font-size: 48px;'>CARGO</p>",NA,NA,0,NA,NA,"type of boat","read","old","CARGO"
1680461142950,"pureproduce","0.0-14.0-0.11","List1","test",765.700000047684,"15pluxsrmt1hw2n",526679,116,"html-keyboard-response",NA,1,"<p style='font-size: 48px;'>CANOE</p>",NA,NA,1,NA,NA,"type of boat","read","old","CANOE"
1680461142950,"pureproduce","0.0-14.0-0.12","List1","test",635.200000047684,"15pluxsrmt1hw2n",527825,117,"html-keyboard-response",NA,0,"<p style='font-size: 48px;'>VIOLIN</p>",NA,NA,1,NA,NA,"musical instrument","new","new","VIOLIN"
1680461142950,"pureproduce","0.0-14.0-0.13","List1","test",965.300000190735,"15pluxsrmt1hw2n",529296,118,"html-keyboard-response",NA,1,"<p style='font-size: 48px;'>AMETHYST</p>",NA,NA,1,NA,NA,"precious stone","produce","old","AMETHYST"
1680461142950,"pureproduce","0.0-14.0-0.14","List1","test",801.099999904633,"15pluxsrmt1hw2n",530601,119,"html-keyboard-response",NA,1,"<p style='font-size: 48px;'>DIESEL</p>",NA,NA,1,NA,NA,"type of fuel","produce","old","DIESEL"
1680461142950,"pureproduce","0.0-14.0-0.15","List1","test",908.799999952316,"15pluxsrmt1hw2n",532016,120,"html-keyboard-response",NA,0,"<p style='font-size: 48px;'>RASPBERRY</p>",NA,NA,1,NA,NA,"fruit","new","new","RASPBERRY"
1680461142950,"pureproduce","0.0-14.0-0.16","List1","test",778.799999952316,"15pluxsrmt1hw2n",533311,121,"html-keyboard-response",NA,0,"<p style='font-size: 48px;'>SHIRT</p>",NA,NA,1,NA,NA,"article of clothing","new","new","SHIRT"
1680461142950,"pureproduce","0.0-14.0-0.17","List1","test",931.5,"15pluxsrmt1hw2n",534757,122,"html-keyboard-response",NA,0,"<p style='font-size: 48px;'>URANIUM</p>",NA,NA,1,NA,NA,"chemical element","produce","new","URANIUM"
1680461142950,"pureproduce","0.0-14.0-0.18","List1","test",716.399999856949,"15pluxsrmt1hw2n",535982,123,"html-keyboard-response",NA,0,"<p style='font-size: 48px;'>BOOTS</p>",NA,NA,0,NA,NA,"footware","read","old","BOOTS"
1680461142950,"pureproduce","0.0-14.0-0.19","List1","test",1069.10000014305,"15pluxsrmt1hw2n",537557,124,"html-keyboard-response",NA,0,"<p style='font-size: 48px;'>SANDER</p>",NA,NA,1,NA,NA,"carpenter tool","produce","new","SANDER"
1680461142950,"pureproduce","0.0-14.0-0.20","List1","test",755.700000047684,"15pluxsrmt1hw2n",538823,125,"html-keyboard-response",NA,1,"<p style='font-size: 48px;'>SCREW</p>",NA,NA,0,NA,NA,"carpenter tool","produce","new","SCREW"
1680461142950,"pureproduce","0.0-14.0-0.21","List1","test",1101.69999980927,"15pluxsrmt1hw2n",540438,126,"html-keyboard-response",NA,1,"<p style='font-size: 48px;'>BISHOP</p>",NA,NA,1,NA,NA,"member of clergy","produce","old","BISHOP"
1680461142950,"pureproduce","0.0-14.0-0.22","List1","test",1154.20000004768,"15pluxsrmt1hw2n",542099,127,"html-keyboard-response",NA,0,"<p style='font-size: 48px;'>BATTLESHIP</p>",NA,NA,1,NA,NA,"type of boat","read","new","BATTLESHIP"
1680461142950,"pureproduce","0.0-14.0-0.23","List1","test",750.800000190735,"15pluxsrmt1hw2n",543359,128,"html-keyboard-response",NA,0,"<p style='font-size: 48px;'>MILK</p>",NA,NA,0,NA,NA,"nonalcoholic beverage","read","old","MILK"
1680461142950,"pureproduce","0.0-14.0-0.24","List1","test",607.099999904633,"15pluxsrmt1hw2n",544469,129,"html-keyboard-response",NA,0,"<p style='font-size: 48px;'>RAIN</p>",NA,NA,1,NA,NA,"weather phenomenon","new","new","RAIN"
1680461142950,"pureproduce","0.0-14.0-0.25","List1","test",1410.20000004768,"15pluxsrmt1hw2n",546400,130,"html-keyboard-response",NA,0,"<p style='font-size: 48px;'>TACKLE</p>",NA,NA,0,NA,NA,"football position","read","old","TACKLE"
1680461142950,"pureproduce","0.0-14.0-0.26","List1","test",978.5,"15pluxsrmt1hw2n",547881,131,"html-keyboard-response",NA,0,"<p style='font-size: 48px;'>SPARROW</p>",NA,NA,1,NA,NA,"bird","read","new","SPARROW"
1680461142950,"pureproduce","0.0-14.0-0.27","List1","test",565.300000190735,"15pluxsrmt1hw2n",548961,132,"html-keyboard-response",NA,1,"<p style='font-size: 48px;'>FLIPFLOPS</p>",NA,NA,1,NA,NA,"footware","read","old","FLIPFLOPS"
1680461142950,"pureproduce","0.0-14.0-0.28","List1","test",1044.79999995232,"15pluxsrmt1hw2n",550516,133,"html-keyboard-response",NA,0,"<p style='font-size: 48px;'>WOOL</p>",NA,NA,1,NA,NA,"type of fabric","new","new","WOOL"
1680461142950,"pureproduce","0.0-14.0-0.29","List1","test",1472.70000004768,"15pluxsrmt1hw2n",552507,134,"html-keyboard-response",NA,1,"<p style='font-size: 48px;'>ARGON</p>",NA,NA,1,NA,NA,"chemical element","produce","old","ARGON"
1680461142950,"pureproduce","0.0-14.0-0.30","List1","test",842.5,"15pluxsrmt1hw2n",553852,135,"html-keyboard-response",NA,0,"<p style='font-size: 48px;'>GUARD</p>",NA,NA,0,NA,NA,"football position","read","old","GUARD"
1680461142950,"pureproduce","0.0-14.0-0.31","List1","test",674.099999904633,"15pluxsrmt1hw2n",555032,136,"html-keyboard-response",NA,0,"<p style='font-size: 48px;'>SNOW</p>",NA,NA,1,NA,NA,"weather phenomenon","new","new","SNOW"
1680461142950,"pureproduce","0.0-14.0-0.32","List1","test",810.200000047684,"15pluxsrmt1hw2n",556354,137,"html-keyboard-response",NA,1,"<p style='font-size: 48px;'>TANGO</p>",NA,NA,1,NA,NA,"type of dance","read","old","TANGO"
1680461142950,"pureproduce","0.0-14.0-0.33","List1","test",730.799999952316,"15pluxsrmt1hw2n",557603,138,"html-keyboard-response",NA,1,"<p style='font-size: 48px;'>BLUEJAY</p>",NA,NA,1,NA,NA,"bird","read","old","BLUEJAY"
1680461142950,"pureproduce","0.0-14.0-0.34","List1","test",783.099999904633,"15pluxsrmt1hw2n",558895,139,"html-keyboard-response",NA,0,"<p style='font-size: 48px;'>ELECTRIC</p>",NA,NA,1,NA,NA,"type of fuel","produce","new","ELECTRIC"
1680461142950,"pureproduce","0.0-14.0-0.35","List1","test",596.5,"15pluxsrmt1hw2n",560000,140,"html-keyboard-response",NA,1,"<p style='font-size: 48px;'>KEROSENE</p>",NA,NA,1,NA,NA,"type of fuel","produce","old","KEROSENE"
1680461142950,"pureproduce","0.0-14.0-0.36","List1","test",738.299999952316,"15pluxsrmt1hw2n",561249,141,"html-keyboard-response",NA,0,"<p style='font-size: 48px;'>MOTH</p>",NA,NA,1,NA,NA,"insect","new","new","MOTH"
1680461142950,"pureproduce","0.0-14.0-0.37","List1","test",670.699999809265,"15pluxsrmt1hw2n",562435,142,"html-keyboard-response",NA,1,"<p style='font-size: 48px;'>MOCCASINS</p>",NA,NA,1,NA,NA,"footware","read","old","MOCCASINS"
1680461142950,"pureproduce","0.0-14.0-0.38","List1","test",1092.70000004768,"15pluxsrmt1hw2n",564037,143,"html-keyboard-response",NA,0,"<p style='font-size: 48px;'>TEXAS</p>",NA,NA,1,NA,NA,"state","new","new","TEXAS"
1680461142950,"pureproduce","0.0-14.0-0.39","List1","test",796.700000047684,"15pluxsrmt1hw2n",565336,144,"html-keyboard-response",NA,0,"<p style='font-size: 48px;'>CAULIFLOWER</p>",NA,NA,1,NA,NA,"vegetable","new","new","CAULIFLOWER"
1680461142950,"pureproduce","0.0-14.0-0.40","List1","test",698.899999856949,"15pluxsrmt1hw2n",566546,145,"html-keyboard-response",NA,1,"<p style='font-size: 48px;'>HAMMER</p>",NA,NA,1,NA,NA,"carpenter tool","produce","old","HAMMER"
1680461142950,"pureproduce","0.0-14.0-0.41","List1","test",1533.40000009537,"15pluxsrmt1hw2n",568587,146,"html-keyboard-response",NA,1,"<p style='font-size: 48px;'>GAS</p>",NA,NA,1,NA,NA,"type of fuel","produce","old","GAS"
1680461142950,"pureproduce","0.0-14.0-0.42","List1","test",636.099999904633,"15pluxsrmt1hw2n",569767,147,"html-keyboard-response",NA,1,"<p style='font-size: 48px;'>SANDALS</p>",NA,NA,1,NA,NA,"footware","read","old","SANDALS"
1680461142950,"pureproduce","0.0-14.0-0.43","List1","test",645.799999952316,"15pluxsrmt1hw2n",570922,148,"html-keyboard-response",NA,0,"<p style='font-size: 48px;'>OFFICER</p>",NA,NA,1,NA,NA,"military title","new","new","OFFICER"
1680461142950,"pureproduce","0.0-14.0-0.44","List1","test",1891.5,"15pluxsrmt1hw2n",573323,149,"html-keyboard-response",NA,0,"<p style='font-size: 48px;'>OCEAN</p>",NA,NA,1,NA,NA,"natural earth formation","new","new","OCEAN"
1680461142950,"pureproduce","0.0-14.0-0.45","List1","test",657.600000143051,"15pluxsrmt1hw2n",574488,150,"html-keyboard-response",NA,0,"<p style='font-size: 48px;'>CARROT</p>",NA,NA,1,NA,NA,"vegetable","new","new","CARROT"
1680461142950,"pureproduce","0.0-14.0-0.46","List1","test",660.799999952316,"15pluxsrmt1hw2n",575668,151,"html-keyboard-response",NA,0,"<p style='font-size: 48px;'>COUCH</p>",NA,NA,0,NA,NA,"article of furniture","produce","old","COUCH"
1680461142950,"pureproduce","0.0-14.0-0.47","List1","test",1328.09999990463,"15pluxsrmt1hw2n",577504,152,"html-keyboard-response",NA,0,"<p style='font-size: 48px;'>BED</p>",NA,NA,0,NA,NA,"article of furniture","produce","old","BED"
1680461142950,"pureproduce","0.0-14.0-0.48","List1","test",592.5,"15pluxsrmt1hw2n",578619,153,"html-keyboard-response",NA,1,"<p style='font-size: 48px;'>WRENCH</p>",NA,NA,1,NA,NA,"carpenter tool","produce","old","WRENCH"
1680461142950,"pureproduce","0.0-14.0-0.49","List1","test",731.399999856949,"15pluxsrmt1hw2n",579865,154,"html-keyboard-response",NA,1,"<p style='font-size: 48px;'>TURQUOISE</p>",NA,NA,1,NA,NA,"precious stone","produce","old","TURQUOISE"
1680461142950,"pureproduce","0.0-14.0-0.50","List1","test",2043.09999990463,"15pluxsrmt1hw2n",582416,155,"html-keyboard-response",NA,0,"<p style='font-size: 48px;'>WATER</p>",NA,NA,0,NA,NA,"nonalcoholic beverage","read","old","WATER"
1680461142950,"pureproduce","0.0-14.0-0.51","List1","test",730.099999904633,"15pluxsrmt1hw2n",583651,156,"html-keyboard-response",NA,0,"<p style='font-size: 48px;'>CLOGS</p>",NA,NA,0,NA,NA,"footware","read","old","CLOGS"
1680461142950,"pureproduce","0.0-14.0-0.52","List1","test",755.200000047684,"15pluxsrmt1hw2n",584922,157,"html-keyboard-response",NA,0,"<p style='font-size: 48px;'>TOPAZ</p>",NA,NA,1,NA,NA,"precious stone","produce","new","TOPAZ"
1680461142950,"pureproduce","0.0-14.0-0.53","List1","test",1391.79999995232,"15pluxsrmt1hw2n",586827,158,"html-keyboard-response",NA,1,"<p style='font-size: 48px;'>DOVE</p>",NA,NA,0,NA,NA,"bird","read","new","DOVE"
1680461142950,"pureproduce","0.0-14.0-0.54","List1","test",1848.90000009537,"15pluxsrmt1hw2n",589182,159,"html-keyboard-response",NA,0,"<p style='font-size: 48px;'>COKE</p>",NA,NA,1,NA,NA,"nonalcoholic beverage","read","new","COKE"
1680461142950,"pureproduce","0.0-14.0-0.55","List1","test",667.599999904633,"15pluxsrmt1hw2n",590368,160,"html-keyboard-response",NA,0,"<p style='font-size: 48px;'>MOUNTAIN</p>",NA,NA,1,NA,NA,"natural earth formation","new","new","MOUNTAIN"
1680461142950,"pureproduce","0.0-14.0-0.56","List1","test",1254.70000004768,"15pluxsrmt1hw2n",592139,161,"html-keyboard-response",NA,0,"<p style='font-size: 48px;'>OFFENSE</p>",NA,NA,0,NA,NA,"football position","read","old","OFFENSE"
1680461142950,"pureproduce","0.0-14.0-0.57","List1","test",770.400000095367,"15pluxsrmt1hw2n",593419,162,"html-keyboard-response",NA,1,"<p style='font-size: 48px;'>SALSA</p>",NA,NA,1,NA,NA,"type of dance","read","old","SALSA"
1680461142950,"pureproduce","0.0-14.0-0.58","List1","test",924.5,"15pluxsrmt1hw2n",594850,163,"html-keyboard-response",NA,0,"<p style='font-size: 48px;'>POTASSIUM</p>",NA,NA,0,NA,NA,"chemical element","produce","old","POTASSIUM"
1680461142950,"pureproduce","0.0-14.0-0.59","List1","test",646.099999904633,"15pluxsrmt1hw2n",596011,164,"html-keyboard-response",NA,0,"<p style='font-size: 48px;'>BALLROOM</p>",NA,NA,0,NA,NA,"type of dance","read","old","BALLROOM"
1680461142950,"pureproduce","0.0-14.0-0.60","List1","test",904.5,"15pluxsrmt1hw2n",597422,165,"html-keyboard-response",NA,0,"<p style='font-size: 48px;'>STOOL</p>",NA,NA,1,NA,NA,"article of furniture","produce","new","STOOL"
1680461142950,"pureproduce","0.0-14.0-0.61","List1","test",884.399999856949,"15pluxsrmt1hw2n",598811,166,"html-keyboard-response",NA,0,"<p style='font-size: 48px;'>LOUISIANA</p>",NA,NA,1,NA,NA,"state","new","new","LOUISIANA"
1680461142950,"pureproduce","0.0-14.0-0.62","List1","test",820.599999904633,"15pluxsrmt1hw2n",600146,167,"html-keyboard-response",NA,1,"<p style='font-size: 48px;'>NUN</p>",NA,NA,1,NA,NA,"member of clergy","produce","old","NUN"
1680461142950,"pureproduce","0.0-14.0-0.63","List1","test",677.399999856949,"15pluxsrmt1hw2n",601332,168,"html-keyboard-response",NA,0,"<p style='font-size: 48px;'>ORANGE</p>",NA,NA,1,NA,NA,"fruit","new","new","ORANGE"
1680461142950,"pureproduce","0.0-14.0-0.64","List1","test",743.5,"15pluxsrmt1hw2n",602578,169,"html-keyboard-response",NA,0,"<p style='font-size: 48px;'>EAGLE</p>",NA,NA,0,NA,NA,"bird","read","old","EAGLE"
1680461142950,"pureproduce","0.0-14.0-0.65","List1","test",702.400000095367,"15pluxsrmt1hw2n",603797,170,"html-keyboard-response",NA,0,"<p style='font-size: 48px;'>CENTER</p>",NA,NA,1,NA,NA,"football position","read","new","CENTER"
1680461142950,"pureproduce","0.0-14.0-0.66","List1","test",4016.20000004768,"15pluxsrmt1hw2n",608319,171,"html-keyboard-response",NA,0,"<p style='font-size: 48px;'>LEMONADE</p>",NA,NA,0,NA,NA,"nonalcoholic beverage","read","old","LEMONADE"
1680461142950,"pureproduce","0.0-14.0-0.67","List1","test",605.599999904633,"15pluxsrmt1hw2n",609439,172,"html-keyboard-response",NA,1,"<p style='font-size: 48px;'>PRIEST</p>",NA,NA,1,NA,NA,"member of clergy","produce","old","PRIEST"
1680461142950,"pureproduce","0.0-14.0-0.68","List1","test",1504.29999995232,"15pluxsrmt1hw2n",611465,173,"html-keyboard-response",NA,0,"<p style='font-size: 48px;'>LOVESEAT</p>",NA,NA,0,NA,NA,"article of furniture","produce","old","LOVESEAT"
1680461142950,"pureproduce","0.0-14.0-0.69","List1","test",945.5,"15pluxsrmt1hw2n",612920,174,"html-keyboard-response",NA,0,"<p style='font-size: 48px;'>PETROLEUM</p>",NA,NA,1,NA,NA,"type of fuel","produce","new","PETROLEUM"
1680461142950,"pureproduce","0.0-14.0-0.70","List1","test",685.200000047684,"15pluxsrmt1hw2n",614120,175,"html-keyboard-response",NA,0,"<p style='font-size: 48px;'>DENIM</p>",NA,NA,1,NA,NA,"type of fabric","new","new","DENIM"
1680461142950,"pureproduce","0.0-14.0-0.71","List1","test",599.5,"15pluxsrmt1hw2n",615226,176,"html-keyboard-response",NA,0,"<p style='font-size: 48px;'>HALIBUT</p>",NA,NA,1,NA,NA,"fish","new","new","HALIBUT"
1680461142950,"pureproduce","0.0-14.0-0.72","List1","test",942.400000095367,"15pluxsrmt1hw2n",616676,177,"html-keyboard-response",NA,0,"<p style='font-size: 48px;'>FOXTROT</p>",NA,NA,1,NA,NA,"type of dance","read","new","FOXTROT"
1680461142950,"pureproduce","0.0-14.0-0.73","List1","test",969.400000095367,"15pluxsrmt1hw2n",618158,178,"html-keyboard-response",NA,1,"<p style='font-size: 48px;'>PLIERS</p>",NA,NA,1,NA,NA,"carpenter tool","produce","old","PLIERS"
1680461142950,"pureproduce","0.0-14.0-0.74","List1","test",1730.79999995232,"15pluxsrmt1hw2n",620399,179,"html-keyboard-response",NA,1,"<p style='font-size: 48px;'>SCREWDRIVER</p>",NA,NA,1,NA,NA,"carpenter tool","produce","old","SCREWDRIVER"
1680461142950,"pureproduce","0.0-14.0-0.75","List1","test",792.5,"15pluxsrmt1hw2n",621693,180,"html-keyboard-response",NA,0,"<p style='font-size: 48px;'>TEA</p>",NA,NA,1,NA,NA,"nonalcoholic beverage","read","new","TEA"
1680461142950,"pureproduce","0.0-14.0-0.76","List1","test",831.900000095367,"15pluxsrmt1hw2n",623028,181,"html-keyboard-response",NA,1,"<p style='font-size: 48px;'>COFFEE</p>",NA,NA,1,NA,NA,"nonalcoholic beverage","read","old","COFFEE"
1680461142950,"pureproduce","0.0-14.0-0.77","List1","test",697.200000047684,"15pluxsrmt1hw2n",624234,182,"html-keyboard-response",NA,0,"<p style='font-size: 48px;'>GUITAR</p>",NA,NA,1,NA,NA,"musical instrument","new","new","GUITAR"
1680461142950,"pureproduce","0.0-14.0-0.78","List1","test",1028,"15pluxsrmt1hw2n",625764,183,"html-keyboard-response",NA,0,"<p style='font-size: 48px;'>JAZZ</p>",NA,NA,0,NA,NA,"type of dance","read","old","JAZZ"
1680461142950,"pureproduce","0.0-14.0-0.79","List1","test",1232.29999995232,"15pluxsrmt1hw2n",627516,184,"html-keyboard-response",NA,1,"<p style='font-size: 48px;'>CALCIUM</p>",NA,NA,1,NA,NA,"chemical element","produce","old","CALCIUM"
1680461142950,"pureproduce","0.0-14.0-0.80","List1","test",815.600000143051,"15pluxsrmt1hw2n",628842,185,"html-keyboard-response",NA,0,"<p style='font-size: 48px;'>FLY</p>",NA,NA,1,NA,NA,"insect","new","new","FLY"
1680461142950,"pureproduce","0.0-14.0-0.81","List1","test",762.899999856949,"15pluxsrmt1hw2n",630116,186,"html-keyboard-response",NA,1,"<p style='font-size: 48px;'>SODIUM</p>",NA,NA,1,NA,NA,"chemical element","produce","old","SODIUM"
1680461142950,"pureproduce","0.0-14.0-0.82","List1","test",966.5,"15pluxsrmt1hw2n",631596,187,"html-keyboard-response",NA,1,"<p style='font-size: 48px;'>PANTS</p>",NA,NA,0,NA,NA,"article of clothing","new","new","PANTS"
1680461142950,"pureproduce","0.0-14.0-0.83","List1","test",696,"15pluxsrmt1hw2n",632797,188,"html-keyboard-response",NA,0,"<p style='font-size: 48px;'>LIEUTENANT</p>",NA,NA,1,NA,NA,"military title","new","new","LIEUTENANT"
1680461142950,"pureproduce","0.0-14.0-0.84","List1","test",858.700000047684,"15pluxsrmt1hw2n",634166,189,"html-keyboard-response",NA,1,"<p style='font-size: 48px;'>DEACON</p>",NA,NA,1,NA,NA,"member of clergy","produce","old","DEACON"
1680461142950,"pureproduce","0.0-14.0-0.85","List1","test",704.199999809265,"15pluxsrmt1hw2n",635373,190,"html-keyboard-response",NA,0,"<p style='font-size: 48px;'>PEARL</p>",NA,NA,0,NA,NA,"precious stone","produce","old","PEARL"
1680461142950,"pureproduce","0.0-14.0-0.86","List1","test",1031.70000004768,"15pluxsrmt1hw2n",636907,191,"html-keyboard-response",NA,1,"<p style='font-size: 48px;'>EMERALD</p>",NA,NA,1,NA,NA,"precious stone","produce","old","EMERALD"
1680461142950,"pureproduce","0.0-14.0-0.87","List1","test",790.599999904633,"15pluxsrmt1hw2n",638208,192,"html-keyboard-response",NA,0,"<p style='font-size: 48px;'>QUARTZ</p>",NA,NA,1,NA,NA,"precious stone","produce","new","QUARTZ"
1680461142950,"pureproduce","0.0-14.0-0.88","List1","test",974.099999904633,"15pluxsrmt1hw2n",639688,193,"html-keyboard-response",NA,0,"<p style='font-size: 48px;'>NAIL</p>",NA,NA,1,NA,NA,"carpenter tool","produce","new","NAIL"
1680461142950,"pureproduce","0.0-14.0-0.89","List1","test",587.299999952316,"15pluxsrmt1hw2n",640779,194,"html-keyboard-response",NA,1,"<p style='font-size: 48px;'>SAPPHIRE</p>",NA,NA,1,NA,NA,"precious stone","produce","old","SAPPHIRE"
1680461142950,"pureproduce","0.0-14.0-0.90","List1","test",758.099999904633,"15pluxsrmt1hw2n",642040,195,"html-keyboard-response",NA,1,"<p style='font-size: 48px;'>HUMMINGBIRD</p>",NA,NA,1,NA,NA,"bird","read","old","HUMMINGBIRD"
1680461142950,"pureproduce","0.0-14.0-0.91","List1","test",657.700000047684,"15pluxsrmt1hw2n",643209,196,"html-keyboard-response",NA,1,"<p style='font-size: 48px;'>SUBMARINE</p>",NA,NA,1,NA,NA,"type of boat","read","old","SUBMARINE"
1680461142950,"pureproduce","0.0-14.0-0.92","List1","test",509.900000095367,"15pluxsrmt1hw2n",644229,197,"html-keyboard-response",NA,0,"<p style='font-size: 48px;'>SKIRT</p>",NA,NA,1,NA,NA,"article of clothing","new","new","SKIRT"
1680461142950,"pureproduce","0.0-14.0-0.93","List1","test",838.400000095367,"15pluxsrmt1hw2n",645580,198,"html-keyboard-response",NA,0,"<p style='font-size: 48px;'>POPE</p>",NA,NA,1,NA,NA,"member of clergy","produce","new","POPE"
1680461142950,"pureproduce","0.0-14.0-0.94","List1","test",1412.20000004768,"15pluxsrmt1hw2n",647500,199,"html-keyboard-response",NA,0,"<p style='font-size: 48px;'>SILVER</p>",NA,NA,1,NA,NA,"metal","new","new","SILVER"
1680461142950,"pureproduce","0.0-14.0-0.95","List1","test",691.5,"15pluxsrmt1hw2n",648695,200,"html-keyboard-response",NA,1,"<p style='font-size: 48px;'>TROUT</p>",NA,NA,0,NA,NA,"fish","new","new","TROUT"
1680461142950,"pureproduce","0.0-14.0-0.96","List1","test",763.700000047684,"15pluxsrmt1hw2n",649961,201,"html-keyboard-response",NA,0,"<p style='font-size: 48px;'>PASTOR</p>",NA,NA,1,NA,NA,"member of clergy","produce","new","PASTOR"
1680461142950,"pureproduce","0.0-14.0-0.97","List1","test",3153.79999995232,"15pluxsrmt1hw2n",653618,202,"html-keyboard-response",NA,0,"<p style='font-size: 48px;'>COTTON</p>",NA,NA,1,NA,NA,"type of fabric","new","new","COTTON"
1680461142950,"pureproduce","0.0-14.0-0.98","List1","test",1443.90000009537,"15pluxsrmt1hw2n",655578,203,"html-keyboard-response",NA,0,"<p style='font-size: 48px;'>IRON</p>",NA,NA,1,NA,NA,"metal","new","new","IRON"
1680461142950,"pureproduce","0.0-14.0-0.99","List1","test",1144.20000004768,"15pluxsrmt1hw2n",657243,204,"html-keyboard-response",NA,1,"<p style='font-size: 48px;'>BALLET</p>",NA,NA,1,NA,NA,"type of dance","read","old","BALLET"
1680461142950,"pureproduce","0.0-14.0-0.100","List1","test",748.699999809265,"15pluxsrmt1hw2n",658505,205,"html-keyboard-response",NA,0,"<p style='font-size: 48px;'>SPINACH</p>",NA,NA,1,NA,NA,"vegetable","new","new","SPINACH"
1680461142950,"pureproduce","0.0-14.0-0.101","List1","test",566.700000047684,"15pluxsrmt1hw2n",659583,206,"html-keyboard-response",NA,0,"<p style='font-size: 48px;'>TABLE</p>",NA,NA,1,NA,NA,"article of furniture","produce","new","TABLE"
1680461142950,"pureproduce","0.0-14.0-0.102","List1","test",1547,"15pluxsrmt1hw2n",661634,207,"html-keyboard-response",NA,0,"<p style='font-size: 48px;'>LOAFERS</p>",NA,NA,1,NA,NA,"footware","read","new","LOAFERS"
1680461142950,"pureproduce","0.0-14.0-0.103","List1","test",597.800000190735,"15pluxsrmt1hw2n",662739,208,"html-keyboard-response",NA,0,"<p style='font-size: 48px;'>ANT</p>",NA,NA,1,NA,NA,"insect","new","new","ANT"
1680461142950,"pureproduce","0.0-14.0-0.104","List1","test",566.299999952316,"15pluxsrmt1hw2n",663815,209,"html-keyboard-response",NA,0,"<p style='font-size: 48px;'>RAVEN</p>",NA,NA,1,NA,NA,"bird","read","new","RAVEN"
1680461142950,"pureproduce","0.0-14.0-0.105","List1","test",733.300000190735,"15pluxsrmt1hw2n",665056,210,"html-keyboard-response",NA,1,"<p style='font-size: 48px;'>SLIPPERS</p>",NA,NA,0,NA,NA,"footware","read","new","SLIPPERS"
1680461142950,"pureproduce","0.0-14.0-0.106","List1","test",1204.29999995232,"15pluxsrmt1hw2n",666772,211,"html-keyboard-response",NA,0,"<p style='font-size: 48px;'>OXYGEN</p>",NA,NA,0,NA,NA,"chemical element","produce","old","OXYGEN"
1680461142950,"pureproduce","0.0-14.0-0.107","List1","test",948.099999904633,"15pluxsrmt1hw2n",668227,212,"html-keyboard-response",NA,1,"<p style='font-size: 48px;'>CHAIR</p>",NA,NA,1,NA,NA,"article of furniture","produce","old","CHAIR"
1680461142950,"pureproduce","0.0-14.0-0.108","List1","test",902.599999904633,"15pluxsrmt1hw2n",669637,213,"html-keyboard-response",NA,0,"<p style='font-size: 48px;'>PEACH</p>",NA,NA,1,NA,NA,"fruit","new","new","PEACH"
1680461142950,"pureproduce","0.0-14.0-0.109","List1","test",1474.5,"15pluxsrmt1hw2n",671622,214,"html-keyboard-response",NA,0,"<p style='font-size: 48px;'>PROPANE</p>",NA,NA,1,NA,NA,"type of fuel","produce","new","PROPANE"
1680461142950,"pureproduce","0.0-14.0-0.110","List1","test",768.599999904633,"15pluxsrmt1hw2n",672897,215,"html-keyboard-response",NA,1,"<p style='font-size: 48px;'>DUCK</p>",NA,NA,1,NA,NA,"bird","read","old","DUCK"
1680461142950,"pureproduce","0.0-14.0-0.111","List1","test",700.5,"15pluxsrmt1hw2n",674123,216,"html-keyboard-response",NA,0,"<p style='font-size: 48px;'>QUARTERBACK</p>",NA,NA,0,NA,NA,"football position","read","old","QUARTERBACK"
1680461142950,"pureproduce","0.0-14.0-0.112","List1","test",823.900000095367,"15pluxsrmt1hw2n",675452,217,"html-keyboard-response",NA,0,"<p style='font-size: 48px;'>SAW</p>",NA,NA,0,NA,NA,"carpenter tool","produce","old","SAW"
1680461142950,"pureproduce","0.0-14.0-0.113","List1","test",709.400000095367,"15pluxsrmt1hw2n",676677,218,"html-keyboard-response",NA,0,"<p style='font-size: 48px;'>TORNADO</p>",NA,NA,1,NA,NA,"weather phenomenon","new","new","TORNADO"
1680461142950,"pureproduce","0.0-14.0-0.114","List1","test",641.799999952316,"15pluxsrmt1hw2n",677833,219,"html-keyboard-response",NA,0,"<p style='font-size: 48px;'>OIL</p>",NA,NA,0,NA,NA,"type of fuel","produce","old","OIL"
1680461142950,"pureproduce","0.0-14.0-0.115","List1","test",746.799999952316,"15pluxsrmt1hw2n",679099,220,"html-keyboard-response",NA,0,"<p style='font-size: 48px;'>VERMONT</p>",NA,NA,1,NA,NA,"state","new","new","VERMONT"
1680461142950,"pureproduce","0.0-14.0-0.116","List1","test",757.400000095367,"15pluxsrmt1hw2n",680365,221,"html-keyboard-response",NA,0,"<p style='font-size: 48px;'>RAFT</p>",NA,NA,1,NA,NA,"type of boat","read","new","RAFT"
1680461142950,"pureproduce","0.0-14.0-0.117","List1","test",1107.40000009537,"15pluxsrmt1hw2n",681974,222,"html-keyboard-response",NA,0,"<p style='font-size: 48px;'>ARCHBISHOP</p>",NA,NA,1,NA,NA,"member of clergy","produce","new","ARCHBISHOP"
1680461142950,"pureproduce","0.0-14.0-0.118","List1","test",1148.79999995232,"15pluxsrmt1hw2n",683624,223,"html-keyboard-response",NA,0,"<p style='font-size: 48px;'>POP</p>",NA,NA,0,NA,NA,"nonalcoholic beverage","read","old","POP"
1680461142950,"pureproduce","0.0-14.0-0.119","List1","test",1151.30000019073,"15pluxsrmt1hw2n",685290,224,"html-keyboard-response",NA,0,"<p style='font-size: 48px;'>CLEATS</p>",NA,NA,1,NA,NA,"footware","read","new","CLEATS"
1680461142950,"pureproduce","0.0-14.0-0.120","List1","test",1496,"15pluxsrmt1hw2n",687300,225,"html-keyboard-response",NA,0,"<p style='font-size: 48px;'>PREACHER</p>",NA,NA,0,NA,NA,"member of clergy","produce","old","PREACHER"
1680461142950,"pureproduce","0.0-14.0-0.121","List1","test",767.700000047684,"15pluxsrmt1hw2n",688585,226,"html-keyboard-response",NA,1,"<p style='font-size: 48px;'>HEELS</p>",NA,NA,1,NA,NA,"footware","read","old","HEELS"
1680461142950,"pureproduce","0.0-14.0-0.122","List1","test",640.800000190735,"15pluxsrmt1hw2n",689733,227,"html-keyboard-response",NA,1,"<p style='font-size: 48px;'>RUBY</p>",NA,NA,1,NA,NA,"precious stone","produce","old","RUBY"
1680461142950,"pureproduce","0.0-14.0-0.123","List1","test",589,"15pluxsrmt1hw2n",690826,228,"html-keyboard-response",NA,0,"<p style='font-size: 48px;'>SOFA</p>",NA,NA,1,NA,NA,"article of furniture","produce","new","SOFA"
1680461142950,"pureproduce","0.0-14.0-0.124","List1","test",639.700000047684,"15pluxsrmt1hw2n",691982,229,"html-keyboard-response",NA,0,"<p style='font-size: 48px;'>PERCH</p>",NA,NA,1,NA,NA,"fish","new","new","PERCH"
1680461142950,"pureproduce","0.0-14.0-0.125","List1","test",749.199999809265,"15pluxsrmt1hw2n",693238,230,"html-keyboard-response",NA,0,"<p style='font-size: 48px;'>SWING</p>",NA,NA,0,NA,NA,"type of dance","read","old","SWING"
1680461142950,"pureproduce","0.0-14.0-0.126","List1","test",852.799999952316,"15pluxsrmt1hw2n",694598,231,"html-keyboard-response",NA,0,"<p style='font-size: 48px;'>WALTZ</p>",NA,NA,1,NA,NA,"type of dance","read","new","WALTZ"
1680461142950,"pureproduce","0.0-14.0-0.127","List1","test",585.5,"15pluxsrmt1hw2n",695688,232,"html-keyboard-response",NA,1,"<p style='font-size: 48px;'>OSTRICH</p>",NA,NA,1,NA,NA,"bird","read","old","OSTRICH"
1680461142950,"pureproduce","0.0-14.0-0.128","List1","test",654,"15pluxsrmt1hw2n",696848,233,"html-keyboard-response",NA,0,"<p style='font-size: 48px;'>LINEMAN</p>",NA,NA,0,NA,NA,"football position","read","old","LINEMAN"
1680461142950,"pureproduce","0.0-14.0-0.129","List1","test",794.599999904633,"15pluxsrmt1hw2n",698158,234,"html-keyboard-response",NA,0,"<p style='font-size: 48px;'>SODA</p>",NA,NA,1,NA,NA,"nonalcoholic beverage","read","new","SODA"
1680461142950,"pureproduce","0.0-14.0-0.130","List1","test",788.400000095367,"15pluxsrmt1hw2n",699449,235,"html-keyboard-response",NA,0,"<p style='font-size: 48px;'>RECEIVER</p>",NA,NA,0,NA,NA,"football position","read","old","RECEIVER"
1680461142950,"pureproduce","0.0-14.0-0.131","List1","test",590.900000095367,"15pluxsrmt1hw2n",700544,236,"html-keyboard-response",NA,0,"<p style='font-size: 48px;'>JUICE</p>",NA,NA,0,NA,NA,"nonalcoholic beverage","read","old","JUICE"
1680461142950,"pureproduce","0.0-14.0-0.132","List1","test",774.700000047684,"15pluxsrmt1hw2n",701824,237,"html-keyboard-response",NA,0,"<p style='font-size: 48px;'>CORNERBACK</p>",NA,NA,1,NA,NA,"football position","read","new","CORNERBACK"
1680461142950,"pureproduce","0.0-14.0-0.133","List1","test",2309.89999985695,"15pluxsrmt1hw2n",704636,238,"html-keyboard-response",NA,0,"<p style='font-size: 48px;'>DEFENSE</p>",NA,NA,1,NA,NA,"football position","read","new","DEFENSE"
1680461142950,"pureproduce","0.0-14.0-0.134","List1","test",670,"15pluxsrmt1hw2n",705815,239,"html-keyboard-response",NA,0,"<p style='font-size: 48px;'>GEMSTONE</p>",NA,NA,1,NA,NA,"precious stone","produce","new","GEMSTONE"
1680461142950,"pureproduce","0.0-14.0-0.135","List1","test",571.400000095367,"15pluxsrmt1hw2n",706901,240,"html-keyboard-response",NA,0,"<p style='font-size: 48px;'>VOLCANO</p>",NA,NA,1,NA,NA,"natural earth formation","new","new","VOLCANO"
1680461142950,"pureproduce","0.0-14.0-0.136","List1","test",964.599999904633,"15pluxsrmt1hw2n",708376,241,"html-keyboard-response",NA,0,"<p style='font-size: 48px;'>HAWK</p>",NA,NA,0,NA,NA,"bird","read","old","HAWK"
1680461142950,"pureproduce","0.0-14.0-0.137","List1","test",661.399999856949,"15pluxsrmt1hw2n",709551,242,"html-keyboard-response",NA,1,"<p style='font-size: 48px;'>YACHT</p>",NA,NA,1,NA,NA,"type of boat","read","old","YACHT"
1680461142950,"pureproduce","0.0-14.0-0.138","List1","test",1006.89999985695,"15pluxsrmt1hw2n",711066,243,"html-keyboard-response",NA,0,"<p style='font-size: 48px;'>FERRY</p>",NA,NA,1,NA,NA,"type of boat","read","new","FERRY"
1680461142950,"pureproduce","0.0-14.0-0.139","List1","test",2367.30000019073,"15pluxsrmt1hw2n",713943,244,"html-keyboard-response",NA,0,"<p style='font-size: 48px;'>COAL</p>",NA,NA,0,NA,NA,"type of fuel","produce","old","COAL"
1680461142950,"pureproduce","0.0-14.0-0.140","List1","test",574.400000095367,"15pluxsrmt1hw2n",715027,245,"html-keyboard-response",NA,0,"<p style='font-size: 48px;'>PIANO</p>",NA,NA,1,NA,NA,"musical instrument","new","new","PIANO"
1680461142950,"pureproduce","0.0-14.0-0.141","List1","test",979.299999952316,"15pluxsrmt1hw2n",716523,246,"html-keyboard-response",NA,0,"<p style='font-size: 48px;'>MAMBO</p>",NA,NA,1,NA,NA,"type of dance","read","new","MAMBO"
1680461142950,"pureproduce","0.0-14.0-0.142","List1","test",544.199999809265,"15pluxsrmt1hw2n",717576,247,"html-keyboard-response",NA,0,"<p style='font-size: 48px;'>PRIVATE</p>",NA,NA,1,NA,NA,"military title","new","new","PRIVATE"
1680461142950,"pureproduce","0.0-14.0-0.143","List1","test",542.599999904633,"15pluxsrmt1hw2n",718634,248,"html-keyboard-response",NA,0,"<p style='font-size: 48px;'>MAGNESIUM</p>",NA,NA,1,NA,NA,"chemical element","produce","new","MAGNESIUM"
1680396719491,"mixed","0.0-14.0-0.0","List4","test",955.999999999942,"1dk05tszd72fab9",476557,105,"html-keyboard-response",NA,0,"<p style='font-size: 48px;'>MISSISSIPPI</p>",NA,NA,1,NA,NA,"state","produce","new","MISSISSIPPI"
1680396719491,"mixed","0.0-14.0-0.1","List4","test",833,"1dk05tszd72fab9",477893,106,"html-keyboard-response",NA,0,"<p style='font-size: 48px;'>CELERY</p>",NA,NA,0,NA,NA,"vegetable","produce","old","CELERY"
1680396719491,"mixed","0.0-14.0-0.2","List4","test",1002.00000000006,"1dk05tszd72fab9",479398,107,"html-keyboard-response",NA,0,"<p style='font-size: 48px;'>CANTALOUPE</p>",NA,NA,0,NA,NA,"fruit","read","old","CANTALOUPE"
1680396719491,"mixed","0.0-14.0-0.3","List4","test",591,"1dk05tszd72fab9",480493,108,"html-keyboard-response",NA,1,"<p style='font-size: 48px;'>SHIRT</p>",NA,NA,1,NA,NA,"article of clothing","produce","old","SHIRT"
1680396719491,"mixed","0.0-14.0-0.4","List4","test",693.000000000058,"1dk05tszd72fab9",481689,109,"html-keyboard-response",NA,0,"<p style='font-size: 48px;'>POTATO</p>",NA,NA,1,NA,NA,"vegetable","produce","new","POTATO"
1680396719491,"mixed","0.0-14.0-0.5","List4","test",696,"1dk05tszd72fab9",482888,110,"html-keyboard-response",NA,0,"<p style='font-size: 48px;'>GAS</p>",NA,NA,1,NA,NA,"type of fuel","new","new","GAS"
1680396719491,"mixed","0.0-14.0-0.6","List4","test",818,"1dk05tszd72fab9",484210,111,"html-keyboard-response",NA,1,"<p style='font-size: 48px;'>TUNA</p>",NA,NA,1,NA,NA,"fish","produce","old","TUNA"
1680396719491,"mixed","0.0-14.0-0.7","List4","test",707,"1dk05tszd72fab9",485421,112,"html-keyboard-response",NA,0,"<p style='font-size: 48px;'>HAMMER</p>",NA,NA,1,NA,NA,"carpenter tool","new","new","HAMMER"
1680396719491,"mixed","0.0-14.0-0.8","List4","test",589,"1dk05tszd72fab9",486514,113,"html-keyboard-response",NA,0,"<p style='font-size: 48px;'>CONNECTICUT</p>",NA,NA,1,NA,NA,"state","produce","new","CONNECTICUT"
1680396719491,"mixed","0.0-14.0-0.9","List4","test",840,"1dk05tszd72fab9",487857,114,"html-keyboard-response",NA,0,"<p style='font-size: 48px;'>CHERRY</p>",NA,NA,0,NA,NA,"fruit","read","old","CHERRY"
1680396719491,"mixed","0.0-14.0-0.10","List4","test",589,"1dk05tszd72fab9",488950,115,"html-keyboard-response",NA,0,"<p style='font-size: 48px;'>NYLON</p>",NA,NA,0,NA,NA,"type of fabric","read","old","NYLON"
1680396719491,"mixed","0.0-14.0-0.11","List4","test",830,"1dk05tszd72fab9",490283,116,"html-keyboard-response",NA,0,"<p style='font-size: 48px;'>WATER</p>",NA,NA,1,NA,NA,"nonalcoholic beverage","new","new","WATER"
1680396719491,"mixed","0.0-14.0-0.12","List4","test",656,"1dk05tszd72fab9",491442,117,"html-keyboard-response",NA,0,"<p style='font-size: 48px;'>MILK</p>",NA,NA,1,NA,NA,"nonalcoholic beverage","new","new","MILK"
1680396719491,"mixed","0.0-14.0-0.13","List4","test",666,"1dk05tszd72fab9",492610,118,"html-keyboard-response",NA,1,"<p style='font-size: 48px;'>VERMONT</p>",NA,NA,1,NA,NA,"state","produce","old","VERMONT"
1680396719491,"mixed","0.0-14.0-0.14","List4","test",756,"1dk05tszd72fab9",493870,119,"html-keyboard-response",NA,0,"<p style='font-size: 48px;'>ASPARAGUS</p>",NA,NA,1,NA,NA,"vegetable","produce","new","ASPARAGUS"
